sep=;
ACCELEROMETER X (m/s²);ACCELEROMETER Y (m/s²);ACCELEROMETER Z (m/s²);GRAVITY X (m/s²);GRAVITY Y (m/s²);GRAVITY Z (m/s²);LINEAR ACCELERATION X (m/s²);LINEAR ACCELERATION Y (m/s²);LINEAR ACCELERATION Z (m/s²);GYROSCOPE X (rad/s);GYROSCOPE Y (rad/s);GYROSCOPE Z (rad/s);LIGHT (lux);MAGNETIC FIELD X (μT);MAGNETIC FIELD Y (μT);MAGNETIC FIELD Z (μT);ORIENTATION Z (azimuth °);ORIENTATION X (pitch °);ORIENTATION Y (roll °);PROXIMITY (m);SOUND LEVEL (dB);LOCATION Latitude : ;LOCATION Longitude : ;LOCATION Altitude ( m);LOCATION Altitude-google ( m);LOCATION Speed ( m/s);LOCATION Accuracy ( m);LOCATION ORIENTATION (°);Satellites in range;Time since start in ms ;YYYY-MO-DD HH-MI-SS_SSS
-0.0096;-0.182;9.8641;-0.016;-0.1641;9.8052;-0.0133;0.0076;0.2073;0.0;0.0;0.0;8.0;-13.31;7.75;-17.12;59.38;0.97;0.1;5.0;18.62;;;;NaN;;;;0 / 0;64;2022-11-16 22:12:42:900
-0.0096;-0.182;9.8641;-0.016;-0.1641;9.8052;-0.0133;0.0076;0.2073;0.0;0.0;0.0;8.0;-13.12;7.75;-17.5;59.38;0.97;0.1;5.0;18.62;;;;NaN;;;;0 / 0;74;2022-11-16 22:12:42:910
-0.0096;-0.182;9.8641;-0.016;-0.1641;9.8052;-0.0133;0.0076;0.2073;0.0;0.0;0.0;8.0;-13.12;7.75;-17.5;59.38;0.97;0.1;5.0;18.62;;;;NaN;;;;0 / 0;84;2022-11-16 22:12:42:920
-0.0096;-0.182;9.8641;-0.016;-0.1641;9.8052;-0.0133;0.0076;0.2073;0.0;0.0;0.0;8.0;-13.12;7.75;-17.5;59.38;0.97;0.1;5.0;18.62;;;;NaN;;;;0 / 0;94;2022-11-16 22:12:42:930
-0.0096;-0.182;9.8641;-0.016;-0.1641;9.8052;-0.0133;0.0076;0.2073;0.0;0.0;0.0;8.0;-13.12;7.75;-17.5;59.38;0.97;0.1;5.0;18.62;;;;NaN;;;;0 / 0;104;2022-11-16 22:12:42:940
0.0;-0.2011;9.8258;-0.016;-0.1641;9.8052;0.0051;0.0386;0.1877;0.0;0.0;0.0;8.0;-13.12;7.75;-17.5;59.38;0.97;0.1;5.0;18.62;;;;NaN;;;;0 / 0;114;2022-11-16 22:12:42:950
0.0;-0.2011;9.8258;-0.016;-0.1641;9.8052;0.0051;0.0386;0.1877;0.0;0.0;0.0;8.0;-13.12;7.75;-17.5;59.38;0.97;0.1;5.0;18.62;;;;NaN;;;;0 / 0;124;2022-11-16 22:12:42:960
0.0;-0.2011;9.8258;-0.0149;-0.1683;9.8051;0.0051;0.0386;0.1877;0.0;0.0;0.0;8.0;-15.12;7.88;-20.75;63.06;0.98;0.09;5.0;18.62;;;;NaN;;;;0 / 0;134;2022-11-16 22:12:42:970
0.0;-0.2011;9.8258;-0.0149;-0.1683;9.8051;0.0051;0.0386;0.1877;0.0;0.0;0.0;8.0;-15.12;7.88;-20.75;63.06;0.98;0.09;5.0;18.62;;;;NaN;;;;0 / 0;144;2022-11-16 22:12:42:980
0.0;-0.2011;9.8258;-0.0149;-0.1683;9.8051;0.0051;0.0386;0.1877;0.0;0.0;0.0;8.0;-15.12;7.88;-20.75;63.06;0.98;0.09;5.0;18.62;;;;NaN;;;;0 / 0;154;2022-11-16 22:12:42:990
0.0;-0.2011;9.8258;-0.0149;-0.1683;9.8051;0.0051;0.0386;0.1877;0.0;0.0;0.0;8.0;-15.12;7.88;-20.75;63.06;0.98;0.09;5.0;18.62;;;;NaN;;;;0 / 0;164;2022-11-16 22:12:43:000
0.0;-0.2011;9.8258;-0.0149;-0.1683;9.8051;0.0145;-1.0E-4;0.1681;0.0;0.0;0.0;8.0;-15.12;7.88;-20.75;63.06;0.98;0.09;5.0;18.62;;;;NaN;;;;0 / 0;176;2022-11-16 22:12:43:012
0.0;-0.2298;9.7588;-0.0149;-0.1683;9.8051;0.0145;-1.0E-4;0.1681;0.0024;0.0;-0.1747;8.0;-15.12;7.88;-20.75;63.06;0.98;0.09;5.0;18.62;;;;NaN;;;;0 / 0;184;2022-11-16 22:12:43:020
0.0;-0.2298;9.7588;-0.0126;-0.165;9.8052;0.0145;-1.0E-4;0.1681;0.0024;0.0;-0.1747;8.0;-15.12;7.88;-20.75;63.06;0.98;0.09;5.0;18.62;;;;NaN;;;;0 / 0;194;2022-11-16 22:12:43:030
0.0;-0.2298;9.7588;-0.0126;-0.165;9.8052;0.0145;-1.0E-4;0.1681;0.0024;0.0;-0.1747;8.0;-15.12;7.88;-20.75;63.06;0.98;0.09;5.0;18.62;;;;NaN;;;;0 / 0;204;2022-11-16 22:12:43:040
0.0;-0.2298;9.7588;-0.0126;-0.165;9.8052;0.0145;-1.0E-4;0.1681;0.0024;0.0;-0.1747;8.0;-14.12;7.88;-19.94;63.06;0.98;0.09;5.0;18.62;;;;NaN;;;;0 / 0;214;2022-11-16 22:12:43:050
0.0;-0.2298;9.7588;-0.0126;-0.165;9.8052;0.0145;-1.0E-4;0.1681;0.0024;0.0;-0.1747;8.0;-14.12;7.88;-19.94;63.06;0.98;0.09;5.0;18.62;;;;NaN;;;;0 / 0;224;2022-11-16 22:12:43:060
0.0;-0.2298;9.7588;-0.0126;-0.165;9.8052;-0.0054;0.0014;0.2368;0.0024;0.0;-0.1747;8.0;-14.12;7.88;-19.94;63.06;0.98;0.09;5.0;18.62;;;;NaN;;;;0 / 0;234;2022-11-16 22:12:43:070
-0.0479;-0.1245;9.7971;-0.0126;-0.165;9.8052;-0.0054;0.0014;0.2368;0.0024;0.0;-0.1747;8.0;-14.12;7.88;-19.94;63.06;0.98;0.09;5.0;18.62;;;;NaN;;;;0 / 0;245;2022-11-16 22:12:43:081
-0.0479;-0.1245;9.7971;-0.016;-0.1647;9.8052;-0.0054;0.0014;0.2368;0.0024;0.0;-0.1747;8.0;-14.12;7.88;-19.94;63.06;0.98;0.09;5.0;18.62;;;;NaN;;;;0 / 0;255;2022-11-16 22:12:43:091
-0.0479;-0.1245;9.7971;-0.016;-0.1647;9.8052;-0.0054;0.0014;0.2368;0.0024;0.0;-0.1747;8.0;-14.12;7.88;-19.94;63.06;0.98;0.09;5.0;18.62;;;;NaN;;;;0 / 0;265;2022-11-16 22:12:43:101
-0.0479;-0.1245;9.7971;-0.016;-0.1647;9.8052;-0.0054;0.0014;0.2368;0.0024;0.0;-0.1747;8.0;-15.69;8.31;-19.94;64.45;0.96;0.09;5.0;18.62;;;;NaN;;;;0 / 0;274;2022-11-16 22:12:43:110
-0.0479;-0.1245;9.7971;-0.016;-0.1647;9.8052;-0.0054;0.0014;0.2368;0.0024;0.0;-0.1747;8.0;-15.69;8.31;-19.94;64.45;0.96;0.09;5.0;18.141;;;;NaN;;;;0 / 0;284;2022-11-16 22:12:43:120
-0.0479;-0.1245;9.7971;-0.016;-0.1647;9.8052;0.0028;0.0043;0.2563;0.0024;0.0;-0.1747;8.0;-15.69;8.31;-19.94;64.45;0.96;0.09;5.0;18.141;;;;NaN;;;;0 / 0;294;2022-11-16 22:12:43:130
-0.0479;-0.1245;9.7971;-0.0145;-0.1609;9.8053;0.0028;0.0043;0.2563;0.0024;0.0;-0.1747;8.0;-15.69;8.31;-19.94;64.45;0.96;0.09;5.0;18.141;;;;NaN;;;;0 / 0;305;2022-11-16 22:12:43:141
-0.067;-0.1532;9.7971;-0.0145;-0.1609;9.8053;0.0028;0.0043;0.2563;0.0;0.0;-0.2468;8.0;-15.69;8.31;-19.94;64.45;0.96;0.09;5.0;18.141;;;;NaN;;;;0 / 0;315;2022-11-16 22:12:43:151
-0.067;-0.1532;9.7971;-0.0145;-0.1609;9.8053;0.0028;0.0043;0.2563;0.0;0.0;-0.2468;8.0;-15.69;8.31;-19.94;64.45;0.96;0.09;5.0;18.141;;;;NaN;;;;0 / 0;324;2022-11-16 22:12:43:160
-0.067;-0.1532;9.7971;-0.0145;-0.1609;9.8053;0.0028;0.0043;0.2563;0.0;0.0;-0.2468;8.0;-15.69;8.31;-19.94;64.45;0.96;0.09;5.0;18.141;;;;NaN;;;;0 / 0;334;2022-11-16 22:12:43:170
-0.067;-0.1532;9.7971;-0.0145;-0.1609;9.8053;0.0028;0.0043;0.2563;0.0;0.0;-0.2468;8.0;-15.69;8.31;-19.94;64.45;0.96;0.09;5.0;18.141;;;;NaN;;;;0 / 0;345;2022-11-16 22:12:43:181
-0.067;-0.1532;9.7971;-0.0145;-0.1609;9.8053;-0.0016;-0.0141;0.2269;0.0;0.0;-0.2468;8.0;-14.94;8.5;-19.25;64.45;0.96;0.09;5.0;18.141;;;;NaN;;;;0 / 0;354;2022-11-16 22:12:43:190
-0.067;-0.1532;9.7971;-0.0145;-0.1609;9.8053;-0.0016;-0.0141;0.2269;0.0;0.0;-0.2468;8.0;-14.94;8.5;-19.25;64.45;0.96;0.09;5.0;18.141;;;;NaN;;;;0 / 0;364;2022-11-16 22:12:43:200
-0.0575;-0.1341;9.7971;-0.0183;-0.1596;9.8053;-0.0016;-0.0141;0.2269;0.0;0.0;-0.2468;8.0;-14.94;8.5;-19.25;64.45;0.96;0.09;5.0;18.141;;;;NaN;;;;0 / 0;374;2022-11-16 22:12:43:210
-0.0575;-0.1341;9.7971;-0.0183;-0.1596;9.8053;-0.0016;-0.0141;0.2269;0.0;0.0;-0.2468;8.0;-14.94;8.5;-19.25;64.45;0.96;0.09;5.0;18.141;;;;NaN;;;;0 / 0;384;2022-11-16 22:12:43:220
-0.0575;-0.1341;9.7971;-0.0183;-0.1596;9.8053;-0.0016;-0.0141;0.2269;0.0;0.0;-0.2468;8.0;-14.94;8.5;-19.25;64.45;0.96;0.09;5.0;18.141;;;;NaN;;;;0 / 0;394;2022-11-16 22:12:43:230
-0.0575;-0.1341;9.7971;-0.0183;-0.1596;9.8053;-0.0016;-0.0141;0.2269;0.0;0.0;-0.2468;8.0;-14.94;8.5;-19.25;64.45;0.96;0.09;5.0;18.141;;;;NaN;;;;0 / 0;405;2022-11-16 22:12:43:241
-0.0575;-0.1341;9.7971;-0.0183;-0.1596;9.8053;-0.0016;-0.0141;0.2269;0.0;0.0;-0.2468;8.0;-14.56;7.94;-19.06;62.91;0.93;0.11;5.0;18.141;;;;NaN;;;;0 / 0;414;2022-11-16 22:12:43:250
-0.0575;-0.1341;9.7971;-0.0183;-0.1596;9.8053;-0.0016;-0.0141;0.2269;0.0;0.0;-0.2468;8.0;-14.56;7.94;-19.06;62.91;0.93;0.11;5.0;18.141;;;;NaN;;;;0 / 0;424;2022-11-16 22:12:43:260
-0.0575;-0.1341;9.7971;-0.0126;-0.1565;9.8053;0.042;0.0584;0.2562;0.0;0.0;-0.2468;8.0;-14.56;7.94;-19.06;62.91;0.93;0.11;5.0;18.141;;;;NaN;;;;0 / 0;435;2022-11-16 22:12:43:271
0.0;-0.1149;9.7971;-0.0126;-0.1565;9.8053;0.042;0.0584;0.2562;0.0;0.0;0.0;8.0;-14.56;7.94;-19.06;62.91;0.93;0.11;5.0;18.141;;;;NaN;;;;0 / 0;444;2022-11-16 22:12:43:280
0.0;-0.1149;9.7971;-0.0126;-0.1565;9.8053;0.042;0.0584;0.2562;0.0;0.0;0.0;8.0;-14.56;7.94;-19.06;62.91;0.93;0.11;5.0;18.141;;;;NaN;;;;0 / 0;454;2022-11-16 22:12:43:290
0.0;-0.1149;9.7971;-0.0126;-0.1565;9.8053;0.042;0.0584;0.2562;0.0;0.0;0.0;8.0;-14.56;7.94;-19.06;62.91;0.93;0.11;5.0;18.141;;;;NaN;;;;0 / 0;464;2022-11-16 22:12:43:300
0.0;-0.1149;9.7971;-0.0126;-0.1565;9.8053;0.042;0.0584;0.2562;0.0;0.0;0.0;8.0;-14.56;7.94;-19.06;62.91;0.93;0.11;5.0;18.141;;;;NaN;;;;0 / 0;474;2022-11-16 22:12:43:310
0.0;-0.1149;9.7971;-0.0126;-0.1565;9.8053;0.042;0.0584;0.2562;0.0;0.0;0.0;8.0;-14.56;7.94;-19.06;62.91;0.93;0.11;5.0;18.141;;;;NaN;;;;0 / 0;484;2022-11-16 22:12:43:320
0.0;-0.1149;9.7971;-0.0107;-0.1622;9.8053;0.042;0.0584;0.2562;0.0;0.0;0.0;8.0;-14.25;8.06;-19.0;62.91;0.93;0.11;5.0;18.141;;;;NaN;;;;0 / 0;494;2022-11-16 22:12:43:330
0.0;-0.1245;9.8067;-0.0107;-0.1622;9.8053;0.0091;0.0313;0.2366;0.0;0.0;0.0;8.0;-14.25;8.06;-19.0;62.91;0.93;0.11;5.0;18.141;;;;NaN;;;;0 / 0;505;2022-11-16 22:12:43:341
0.0;-0.1245;9.8067;-0.0107;-0.1622;9.8053;0.0091;0.0313;0.2366;0.0;0.0;0.0;8.0;-14.25;8.06;-19.0;62.91;0.93;0.11;5.0;18.141;;;;NaN;;;;0 / 0;514;2022-11-16 22:12:43:350
0.0;-0.1245;9.8067;-0.0107;-0.1622;9.8053;0.0091;0.0313;0.2366;0.0;0.0;0.0;8.0;-14.25;8.06;-19.0;62.91;0.93;0.11;5.0;18.141;;;;NaN;;;;0 / 0;525;2022-11-16 22:12:43:361
0.0;-0.1245;9.8067;-0.0107;-0.1622;9.8053;0.0091;0.0313;0.2366;0.0;0.0;0.0;8.0;-14.25;8.06;-19.0;62.91;0.93;0.11;5.0;18.141;;;;NaN;;;;0 / 0;534;2022-11-16 22:12:43:370
0.0;-0.1245;9.8067;-0.0072;-0.1595;9.8053;0.0091;0.0313;0.2366;0.0;0.0;0.0;8.0;-14.25;8.06;-19.0;62.91;0.93;0.11;5.0;18.141;;;;NaN;;;;0 / 0;544;2022-11-16 22:12:43:380
0.0;-0.1245;9.8067;-0.0072;-0.1595;9.8053;0.0091;0.0313;0.2366;0.0;0.0;0.0;8.0;-13.19;8.06;-17.5;59.31;0.93;0.04;5.0;18.141;;;;NaN;;;;0 / 0;554;2022-11-16 22:12:43:390
0.0;-0.1245;9.8067;-0.0072;-0.1595;9.8053;0.0091;0.0313;0.2366;0.0;0.0;0.0;8.0;-13.19;8.06;-17.5;59.31;0.93;0.04;5.0;18.141;;;;NaN;;;;0 / 0;564;2022-11-16 22:12:43:400
0.0;-0.182;9.845;-0.0072;-0.1595;9.8053;0.0072;0.0324;0.2464;0.0012;-0.011;0.2211;8.0;-13.19;8.06;-17.5;59.31;0.93;0.04;5.0;18.141;;;;NaN;;;;0 / 0;574;2022-11-16 22:12:43:410
0.0;-0.182;9.845;-0.0072;-0.1595;9.8053;0.0072;0.0324;0.2464;0.0012;-0.011;0.2211;8.0;-13.19;8.06;-17.5;59.31;0.93;0.04;5.0;18.141;;;;NaN;;;;0 / 0;585;2022-11-16 22:12:43:421
0.0;-0.182;9.845;-0.0072;-0.1595;9.8053;0.0072;0.0324;0.2464;0.0012;-0.011;0.2211;8.0;-13.19;8.06;-17.5;59.31;0.93;0.04;5.0;18.141;;;;NaN;;;;0 / 0;594;2022-11-16 22:12:43:430
0.0;-0.182;9.845;-0.0072;-0.1595;9.8053;0.0072;0.0324;0.2464;0.0012;-0.011;0.2211;8.0;-13.19;8.06;-17.5;59.31;0.93;0.04;5.0;20.65;;;;NaN;;;;0 / 0;604;2022-11-16 22:12:43:440
0.0;-0.182;9.845;-0.0088;-0.1598;9.8053;0.0072;0.0324;0.2464;0.0012;-0.011;0.2211;6.0;-13.19;8.06;-17.5;59.31;0.93;0.04;5.0;20.65;;;;NaN;;;;0 / 0;614;2022-11-16 22:12:43:450
0.0;-0.182;9.845;-0.0088;-0.1598;9.8053;0.0072;0.0324;0.2464;0.0012;-0.011;0.2211;6.0;-13.19;8.06;-17.5;59.31;0.93;0.04;5.0;20.65;;;;NaN;;;;0 / 0;624;2022-11-16 22:12:43:460
-0.0287;-0.1628;9.7971;-0.0088;-0.1598;9.8053;-0.01;-0.0087;0.2464;0.0012;-0.011;0.2211;6.0;-13.12;8.31;-17.31;59.31;0.93;0.04;5.0;20.65;;;;NaN;;;;0 / 0;634;2022-11-16 22:12:43:470
-0.0287;-0.1628;9.7971;-0.0088;-0.1598;9.8053;-0.01;-0.0087;0.2464;0.0012;-0.011;0.2211;6.0;-13.12;8.31;-17.31;59.31;0.93;0.04;5.0;20.65;;;;NaN;;;;0 / 0;644;2022-11-16 22:12:43:480
-0.0287;-0.1628;9.7971;-0.0088;-0.1598;9.8053;-0.01;-0.0087;0.2464;0.0012;-0.011;0.2211;6.0;-13.12;8.31;-17.31;59.31;0.93;0.04;5.0;20.65;;;;NaN;;;;0 / 0;654;2022-11-16 22:12:43:490
-0.0287;-0.1628;9.7971;-0.0088;-0.1598;9.8053;-0.01;-0.0087;0.2464;0.0012;-0.011;0.2211;6.0;-13.12;8.31;-17.31;59.31;0.93;0.04;5.0;20.65;;;;NaN;;;;0 / 0;664;2022-11-16 22:12:43:500
-0.0287;-0.1628;9.7971;-0.0084;-0.1544;9.8054;-0.01;-0.0087;0.2464;0.0012;-0.011;0.2211;6.0;-13.12;8.31;-17.31;59.31;0.93;0.04;5.0;20.65;;;;NaN;;;;0 / 0;675;2022-11-16 22:12:43:511
-0.0287;-0.1628;9.7971;-0.0084;-0.1544;9.8054;-0.01;-0.0087;0.2464;0.0012;-0.011;0.2211;6.0;-13.12;8.31;-17.31;59.31;0.93;0.04;5.0;20.65;;;;NaN;;;;0 / 0;684;2022-11-16 22:12:43:520
-0.0287;-0.1628;9.7971;-0.0084;-0.1544;9.8054;-0.0296;-0.0028;0.2659;0.0012;-0.011;0.2211;6.0;-13.19;8.63;-17.31;56.14;0.9;0.05;5.0;20.65;;;;NaN;;;;0 / 0;694;2022-11-16 22:12:43:530
-0.0192;-0.1724;9.8258;-0.0084;-0.1544;9.8054;-0.0296;-0.0028;0.2659;0.0;-0.0061;0.2358;6.0;-13.19;8.63;-17.31;56.14;0.9;0.05;5.0;20.65;;;;NaN;;;;0 / 0;704;2022-11-16 22:12:43:540
-0.0192;-0.1724;9.8258;-0.0084;-0.1544;9.8054;-0.0296;-0.0028;0.2659;0.0;-0.0061;0.2358;6.0;-13.19;8.63;-17.31;56.14;0.9;0.05;5.0;20.65;;;;NaN;;;;0 / 0;714;2022-11-16 22:12:43:550
-0.0192;-0.1724;9.8258;-0.0141;-0.154;9.8054;-0.0296;-0.0028;0.2659;0.0;-0.0061;0.2358;6.0;-13.19;8.63;-17.31;56.14;0.9;0.05;5.0;20.65;;;;NaN;;;;0 / 0;725;2022-11-16 22:12:43:561
-0.0192;-0.1724;9.8258;-0.0141;-0.154;9.8054;-0.0296;-0.0028;0.2659;0.0;-0.0061;0.2358;8.0;-13.19;8.63;-17.31;56.14;0.9;0.05;5.0;20.65;;;;NaN;;;;0 / 0;734;2022-11-16 22:12:43:570
-0.0192;-0.1724;9.8258;-0.0141;-0.154;9.8054;-0.0296;-0.0028;0.2659;0.0;-0.0061;0.2358;8.0;-13.19;8.63;-17.31;56.14;0.9;0.05;5.0;20.65;;;;NaN;;;;0 / 0;744;2022-11-16 22:12:43:580
-0.0192;-0.1724;9.8258;-0.0141;-0.154;9.8054;-0.0296;-0.0028;0.2659;0.0;-0.0061;0.2358;8.0;-13.19;8.63;-17.31;56.14;0.9;0.05;5.0;20.65;;;;NaN;;;;0 / 0;754;2022-11-16 22:12:43:590
-0.0383;-0.182;9.8545;-0.0141;-0.154;9.8054;-0.0296;-0.0028;0.2659;0.0;-0.0061;0.2358;8.0;-13.19;8.63;-17.31;56.14;0.9;0.05;5.0;20.65;;;;NaN;;;;0 / 0;764;2022-11-16 22:12:43:600
-0.0383;-0.182;9.8545;-0.0141;-0.154;9.8054;-0.0254;-0.0284;0.2856;0.0;-0.0061;0.2358;8.0;-12.87;8.13;-17.5;56.14;0.9;0.05;5.0;20.65;;;;NaN;;;;0 / 0;775;2022-11-16 22:12:43:611
-0.0383;-0.182;9.8545;-0.0141;-0.154;9.8054;-0.0254;-0.0284;0.2856;0.0;-0.0061;0.2358;8.0;-12.87;8.13;-17.5;56.14;0.9;0.05;5.0;20.65;;;;NaN;;;;0 / 0;784;2022-11-16 22:12:43:620
-0.0383;-0.182;9.8545;-0.0145;-0.1605;9.8053;-0.0254;-0.0284;0.2856;0.0;-0.0061;0.2358;8.0;-12.87;8.13;-17.5;56.14;0.9;0.05;5.0;20.65;;;;NaN;;;;0 / 0;794;2022-11-16 22:12:43:630
-0.0383;-0.182;9.8545;-0.0145;-0.1605;9.8053;-0.0254;-0.0284;0.2856;0.0;-0.0061;0.2358;8.0;-12.87;8.13;-17.5;56.14;0.9;0.05;5.0;20.65;;;;NaN;;;;0 / 0;804;2022-11-16 22:12:43:640
-0.0383;-0.182;9.8545;-0.0145;-0.1605;9.8053;-0.0254;-0.0284;0.2856;0.0;-0.0061;0.2358;8.0;-12.87;8.13;-17.5;56.14;0.9;0.05;5.0;20.65;;;;NaN;;;;0 / 0;814;2022-11-16 22:12:43:650
-0.0383;-0.182;9.8545;-0.0145;-0.1605;9.8053;-0.0254;-0.0284;0.2856;0.0;-0.0061;0.2358;8.0;-12.87;8.13;-17.5;56.14;0.9;0.05;5.0;20.65;;;;NaN;;;;0 / 0;824;2022-11-16 22:12:43:660
-0.0192;-0.1149;9.8545;-0.0145;-0.1605;9.8053;-0.0085;-0.0358;0.2759;0.0049;0.0049;0.1747;8.0;-12.94;8.31;-16.81;59.34;0.94;0.08;5.0;20.65;;;;NaN;;;;0 / 0;834;2022-11-16 22:12:43:670
-0.0192;-0.1149;9.8545;-0.0122;-0.159;9.8053;-0.0085;-0.0358;0.2759;0.0049;0.0049;0.1747;8.0;-12.94;8.31;-16.81;59.34;0.94;0.08;5.0;20.65;;;;NaN;;;;0 / 0;845;2022-11-16 22:12:43:681
-0.0192;-0.1149;9.8545;-0.0122;-0.159;9.8053;-0.0085;-0.0358;0.2759;0.0049;0.0049;0.1747;8.0;-12.94;8.31;-16.81;59.34;0.94;0.08;5.0;20.65;;;;NaN;;;;0 / 0;854;2022-11-16 22:12:43:690
-0.0192;-0.1149;9.8545;-0.0122;-0.159;9.8053;-0.0085;-0.0358;0.2759;0.0049;0.0049;0.1747;8.0;-12.94;8.31;-16.81;59.34;0.94;0.08;5.0;20.65;;;;NaN;;;;0 / 0;864;2022-11-16 22:12:43:700
-0.0192;-0.1149;9.8545;-0.0122;-0.159;9.8053;-0.0085;-0.0358;0.2759;0.0049;0.0049;0.1747;8.0;-12.94;8.31;-16.81;59.34;0.94;0.08;5.0;20.65;;;;NaN;;;;0 / 0;874;2022-11-16 22:12:43:710
-0.0192;-0.1149;9.8545;-0.0122;-0.159;9.8053;-0.0085;-0.0358;0.2759;0.0049;0.0049;0.1747;8.0;-12.94;8.31;-16.81;59.34;0.94;0.08;5.0;20.65;;;;NaN;;;;0 / 0;884;2022-11-16 22:12:43:720
-0.0575;-0.1628;9.8067;-0.0122;-0.159;9.8053;-0.051;-0.0154;0.2759;0.0049;0.0049;0.1747;8.0;-12.94;8.31;-16.81;59.34;0.94;0.08;5.0;20.65;;;;NaN;;;;0 / 0;894;2022-11-16 22:12:43:730
-0.0575;-0.1628;9.8067;-0.0122;-0.159;9.8053;-0.051;-0.0154;0.2759;0.0049;0.0049;0.1747;8.0;-12.94;8.31;-16.81;59.34;0.94;0.08;5.0;20.65;;;;NaN;;;;0 / 0;905;2022-11-16 22:12:43:741
-0.0575;-0.1628;9.8067;-0.0187;-0.1641;9.8052;-0.051;-0.0154;0.2759;0.0049;0.0049;0.1747;8.0;-13.5;8.5;-16.75;59.34;0.94;0.08;5.0;20.65;;;;NaN;;;;0 / 0;914;2022-11-16 22:12:43:750
-0.0575;-0.1628;9.8067;-0.0187;-0.1641;9.8052;-0.051;-0.0154;0.2759;0.0049;0.0049;0.1747;8.0;-13.5;8.5;-16.75;59.34;0.94;0.08;5.0;17.823;;;;NaN;;;;0 / 0;925;2022-11-16 22:12:43:761
-0.0575;-0.1628;9.8067;-0.0187;-0.1641;9.8052;-0.051;-0.0154;0.2759;0.0049;0.0049;0.1747;8.0;-13.5;8.5;-16.75;59.34;0.94;0.08;5.0;17.823;;;;NaN;;;;0 / 0;934;2022-11-16 22:12:43:770
-0.0575;-0.1628;9.8067;-0.0187;-0.1641;9.8052;-0.051;-0.0154;0.2759;0.0049;0.0049;0.1747;8.0;-13.5;8.5;-16.75;59.34;0.94;0.08;5.0;17.823;;;;NaN;;;;0 / 0;944;2022-11-16 22:12:43:780
-0.0575;-0.1628;9.8067;-0.0187;-0.1641;9.8052;0.0304;0.0607;0.1778;0.0049;0.0049;0.1747;8.0;-13.5;8.5;-16.75;59.34;0.94;0.08;5.0;17.823;;;;NaN;;;;0 / 0;954;2022-11-16 22:12:43:790
0.0;-0.1628;9.845;-0.0187;-0.1641;9.8052;0.0304;0.0607;0.1778;0.0;0.0;0.0;8.0;-13.5;8.5;-16.75;59.34;0.94;0.08;5.0;17.823;;;;NaN;;;;0 / 0;964;2022-11-16 22:12:43:800
0.0;-0.1628;9.845;-0.0183;-0.155;9.8054;0.0304;0.0607;0.1778;0.0;0.0;0.0;8.0;-13.5;8.5;-16.75;59.34;0.94;0.08;5.0;17.823;;;;NaN;;;;0 / 0;974;2022-11-16 22:12:43:810
0.0;-0.1628;9.845;-0.0183;-0.155;9.8054;0.0304;0.0607;0.1778;0.0;0.0;0.0;8.0;-13.37;8.06;-16.62;59.32;0.91;0.11;5.0;17.823;;;;NaN;;;;0 / 0;984;2022-11-16 22:12:43:820
0.0;-0.1628;9.845;-0.0183;-0.155;9.8054;0.0304;0.0607;0.1778;0.0;0.0;0.0;8.0;-13.37;8.06;-16.62;59.32;0.91;0.11;5.0;17.823;;;;NaN;;;;0 / 0;994;2022-11-16 22:12:43:830
0.0;-0.1628;9.845;-0.0183;-0.155;9.8054;0.0304;0.0607;0.1778;0.0;0.0;0.0;8.0;-13.37;8.06;-16.62;59.32;0.91;0.11;5.0;17.823;;;;NaN;;;;0 / 0;1004;2022-11-16 22:12:43:840
0.0;-0.1628;9.845;-0.0183;-0.155;9.8054;-0.0178;-0.0196;0.2366;0.0;0.0;0.0;8.0;-13.37;8.06;-16.62;59.32;0.91;0.11;5.0;17.823;;;;NaN;;;;0 / 0;1015;2022-11-16 22:12:43:851
-0.0192;-0.1532;9.845;-0.0183;-0.155;9.8054;-0.0178;-0.0196;0.2366;0.0;0.0;0.0;8.0;-13.37;8.06;-16.62;59.32;0.91;0.11;5.0;17.823;;;;NaN;;;;0 / 0;1025;2022-11-16 22:12:43:861
-0.0192;-0.1532;9.845;-0.0221;-0.1561;9.8053;-0.0178;-0.0196;0.2366;0.0;0.0;0.0;8.0;-13.37;8.06;-16.62;59.32;0.91;0.11;5.0;17.823;;;;NaN;;;;0 / 0;1034;2022-11-16 22:12:43:870
-0.0192;-0.1532;9.845;-0.0221;-0.1561;9.8053;-0.0178;-0.0196;0.2366;0.0;0.0;0.0;8.0;-13.37;8.06;-16.62;59.32;0.91;0.11;5.0;17.823;;;;NaN;;;;0 / 0;1044;2022-11-16 22:12:43:880
-0.0192;-0.1532;9.845;-0.0221;-0.1561;9.8053;-0.0178;-0.0196;0.2366;0.0;0.0;0.0;8.0;-13.5;8.25;-17.12;59.32;0.91;0.11;5.0;17.823;;;;NaN;;;;0 / 0;1054;2022-11-16 22:12:43:890
-0.0192;-0.1532;9.845;-0.0221;-0.1561;9.8053;-0.0178;-0.0196;0.2366;0.0;0.0;0.0;8.0;-13.5;8.25;-17.12;59.32;0.91;0.11;5.0;17.823;;;;NaN;;;;0 / 0;1064;2022-11-16 22:12:43:900
-0.0192;-0.1532;9.845;-0.0221;-0.1561;9.8053;-0.0178;-0.0196;0.2366;0.0;0.0;0.0;8.0;-13.5;8.25;-17.12;59.32;0.91;0.11;5.0;17.823;;;;NaN;;;;0 / 0;1074;2022-11-16 22:12:43:910
-0.0192;-0.1532;9.845;-0.0241;-0.158;9.8053;-0.0178;-0.0196;0.2366;0.0;0.0;0.0;8.0;-13.5;8.25;-17.12;59.32;0.91;0.11;5.0;17.823;;;;NaN;;;;0 / 0;1084;2022-11-16 22:12:43:920
-0.0192;-0.1341;9.8258;-0.0241;-0.158;9.8053;0.0241;0.0011;0.2268;0.0024;-0.0024;-0.0782;8.0;-13.5;8.25;-17.12;59.32;0.91;0.11;5.0;17.823;;;;NaN;;;;0 / 0;1095;2022-11-16 22:12:43:931
-0.0192;-0.1341;9.8258;-0.0241;-0.158;9.8053;0.0241;0.0011;0.2268;0.0024;-0.0024;-0.0782;8.0;-13.5;8.25;-17.12;59.32;0.91;0.11;5.0;17.823;;;;NaN;;;;0 / 0;1105;2022-11-16 22:12:43:941
-0.0192;-0.1341;9.8258;-0.0241;-0.158;9.8053;0.0241;0.0011;0.2268;0.0024;-0.0024;-0.0782;8.0;-13.94;8.5;-17.37;58.14;0.92;0.14;5.0;17.823;;;;NaN;;;;0 / 0;1115;2022-11-16 22:12:43:951
-0.0192;-0.1341;9.8258;-0.0241;-0.158;9.8053;0.0241;0.0011;0.2268;0.0024;-0.0024;-0.0782;8.0;-13.94;8.5;-17.37;58.14;0.92;0.14;5.0;17.823;;;;NaN;;;;0 / 0;1124;2022-11-16 22:12:43:960
-0.0192;-0.1341;9.8258;-0.0241;-0.158;9.8053;0.0241;0.0011;0.2268;0.0024;-0.0024;-0.0782;8.0;-13.94;8.5;-17.37;58.14;0.92;0.14;5.0;17.823;;;;NaN;;;;0 / 0;1134;2022-11-16 22:12:43:970
-0.0192;-0.1341;9.8258;-0.021;-0.1565;9.8053;0.0241;0.0011;0.2268;0.0024;-0.0024;-0.0782;8.0;-13.94;8.5;-17.37;58.14;0.92;0.14;5.0;17.823;;;;NaN;;;;0 / 0;1144;2022-11-16 22:12:43:980
-0.0096;-0.1532;9.8545;-0.021;-0.1565;9.8053;0.021;-3.0E-4;0.2464;0.0024;-0.0024;-0.0782;8.0;-13.94;8.5;-17.37;58.14;0.92;0.14;5.0;17.823;;;;NaN;;;;0 / 0;1154;2022-11-16 22:12:43:990
-0.0096;-0.1532;9.8545;-0.021;-0.1565;9.8053;0.021;-3.0E-4;0.2464;0.0024;-0.0024;-0.0782;8.0;-13.94;8.5;-17.37;58.14;0.92;0.14;5.0;17.823;;;;NaN;;;;0 / 0;1164;2022-11-16 22:12:44:000
-0.0096;-0.1532;9.8545;-0.021;-0.1565;9.8053;0.021;-3.0E-4;0.2464;0.0024;-0.0024;-0.0782;8.0;-13.94;8.5;-17.37;58.14;0.92;0.14;5.0;17.823;;;;NaN;;;;0 / 0;1174;2022-11-16 22:12:44:010
-0.0096;-0.1532;9.8545;-0.021;-0.1565;9.8053;0.021;-3.0E-4;0.2464;0.0024;-0.0024;-0.0782;8.0;-13.94;8.5;-17.37;58.14;0.92;0.14;5.0;17.823;;;;NaN;;;;0 / 0;1184;2022-11-16 22:12:44:020
-0.0096;-0.1532;9.8545;-0.021;-0.1565;9.8053;0.021;-3.0E-4;0.2464;0.0024;-0.0024;-0.0782;8.0;-13.56;8.25;-16.87;58.14;0.92;0.14;5.0;17.823;;;;NaN;;;;0 / 0;1194;2022-11-16 22:12:44:030
-0.0096;-0.1532;9.8545;-0.021;-0.1565;9.8053;0.021;-3.0E-4;0.2464;0.0024;-0.0024;-0.0782;8.0;-13.56;8.25;-16.87;58.14;0.92;0.14;5.0;17.823;;;;NaN;;;;0 / 0;1204;2022-11-16 22:12:44:040
-0.0096;-0.1532;9.8545;-0.0172;-0.1546;9.8054;-0.0318;0.0271;0.2365;0.0024;-0.0024;-0.0782;12.0;-13.56;8.25;-16.87;58.14;0.92;0.14;5.0;17.823;;;;NaN;;;;0 / 0;1214;2022-11-16 22:12:44:050
-0.0479;-0.1341;9.8641;-0.0172;-0.1546;9.8054;-0.0318;0.0271;0.2365;0.0;0.0;0.0;12.0;-13.56;8.25;-16.87;58.14;0.92;0.14;5.0;17.823;;;;NaN;;;;0 / 0;1224;2022-11-16 22:12:44:060
-0.0479;-0.1341;9.8641;-0.0172;-0.1546;9.8054;-0.0318;0.0271;0.2365;0.0;0.0;0.0;12.0;-13.56;8.25;-16.87;58.14;0.92;0.14;5.0;17.823;;;;NaN;;;;0 / 0;1234;2022-11-16 22:12:44:070
-0.0479;-0.1341;9.8641;-0.0172;-0.1546;9.8054;-0.0318;0.0271;0.2365;0.0;0.0;0.0;12.0;-13.56;8.25;-16.87;58.14;0.92;0.14;5.0;17.823;;;;NaN;;;;0 / 0;1245;2022-11-16 22:12:44:081
-0.0479;-0.1341;9.8641;-0.0172;-0.1546;9.8054;-0.0318;0.0271;0.2365;0.0;0.0;0.0;12.0;-13.12;8.38;-17.06;59.32;0.9;0.1;5.0;18.568;;;;NaN;;;;0 / 0;1254;2022-11-16 22:12:44:090
-0.0479;-0.1341;9.8641;-0.0191;-0.1527;9.8054;-0.0318;0.0271;0.2365;0.0;0.0;0.0;12.0;-13.12;8.38;-17.06;59.32;0.9;0.1;5.0;18.568;;;;NaN;;;;0 / 0;1264;2022-11-16 22:12:44:100
-0.0479;-0.1341;9.8641;-0.0191;-0.1527;9.8054;-0.02;-0.0335;0.2463;0.0;0.0;0.0;12.0;-13.12;8.38;-17.06;59.32;0.9;0.1;5.0;18.568;;;;NaN;;;;0 / 0;1274;2022-11-16 22:12:44:110
-0.0287;-0.1149;9.8545;-0.0191;-0.1527;9.8054;-0.02;-0.0335;0.2463;0.0;0.0;0.0;12.0;-13.12;8.38;-17.06;59.32;0.9;0.1;5.0;18.568;;;;NaN;;;;0 / 0;1285;2022-11-16 22:12:44:121
-0.0287;-0.1149;9.8545;-0.0191;-0.1527;9.8054;-0.02;-0.0335;0.2463;0.0;0.0;0.0;12.0;-13.12;8.38;-17.06;59.32;0.9;0.1;5.0;18.568;;;;NaN;;;;0 / 0;1294;2022-11-16 22:12:44:130
-0.0287;-0.1149;9.8545;-0.0191;-0.1527;9.8054;-0.02;-0.0335;0.2463;0.0;0.0;0.0;12.0;-13.12;8.38;-17.06;59.32;0.9;0.1;5.0;18.568;;;;NaN;;;;0 / 0;1304;2022-11-16 22:12:44:140
-0.0287;-0.1149;9.8545;-0.0191;-0.1527;9.8054;-0.02;-0.0335;0.2463;0.0;0.0;0.0;12.0;-13.12;8.38;-17.06;59.32;0.9;0.1;5.0;18.568;;;;NaN;;;;0 / 0;1314;2022-11-16 22:12:44:150
-0.0287;-0.1149;9.8545;-0.0191;-0.1527;9.8054;-0.02;-0.0335;0.2463;0.0;0.0;0.0;12.0;-13.12;8.38;-17.06;59.32;0.9;0.1;5.0;18.568;;;;NaN;;;;0 / 0;1324;2022-11-16 22:12:44:160
-0.0287;-0.1149;9.8545;-0.0199;-0.1492;9.8054;0.0199;-0.0174;0.2757;0.0;0.0;0.0;53.0;-13.75;7.56;-16.69;59.32;0.9;0.1;5.0;18.568;;;;NaN;;;;0 / 0;1335;2022-11-16 22:12:44:171
-0.0287;-0.1149;9.8545;-0.0199;-0.1492;9.8054;0.0199;-0.0174;0.2757;0.0;0.0;0.0;53.0;-13.75;7.56;-16.69;59.32;0.9;0.1;5.0;18.568;;;;NaN;;;;0 / 0;1344;2022-11-16 22:12:44:180
-0.0096;-0.1437;9.845;-0.0199;-0.1492;9.8054;0.0199;-0.0174;0.2757;0.0012;0.0;-0.1368;53.0;-13.75;7.56;-16.69;59.32;0.9;0.1;5.0;18.568;;;;NaN;;;;0 / 0;1354;2022-11-16 22:12:44:190
-0.0096;-0.1437;9.845;-0.0199;-0.1492;9.8054;0.0199;-0.0174;0.2757;0.0012;0.0;-0.1368;53.0;-13.75;7.56;-16.69;59.32;0.9;0.1;5.0;18.568;;;;NaN;;;;0 / 0;1364;2022-11-16 22:12:44:200
-0.0096;-0.1437;9.845;-0.0199;-0.1492;9.8054;0.0199;-0.0174;0.2757;0.0012;0.0;-0.1368;53.0;-13.75;7.56;-16.69;59.32;0.9;0.1;5.0;18.568;;;;NaN;;;;0 / 0;1374;2022-11-16 22:12:44:210
-0.0096;-0.1437;9.845;-0.0167;-0.1529;9.8054;0.0199;-0.0174;0.2757;0.0012;0.0;-0.1368;53.0;-13.75;7.56;-16.69;59.32;0.9;0.1;5.0;18.568;;;;NaN;;;;0 / 0;1385;2022-11-16 22:12:44:221
-0.0096;-0.1437;9.845;-0.0167;-0.1529;9.8054;0.0199;-0.0174;0.2757;0.0012;0.0;-0.1368;53.0;-12.75;8.19;-17.12;59.31;0.89;0.1;5.0;18.568;;;;NaN;;;;0 / 0;1394;2022-11-16 22:12:44:230
-0.0096;-0.1437;9.845;-0.0167;-0.1529;9.8054;0.0199;-0.0174;0.2757;0.0012;0.0;-0.1368;53.0;-12.75;8.19;-17.12;59.31;0.89;0.1;5.0;18.568;;;;NaN;;;;0 / 0;1405;2022-11-16 22:12:44:241
-0.0096;-0.1437;9.845;-0.0167;-0.1529;9.8054;0.0345;-0.0058;0.2071;0.0012;0.0;-0.1368;53.0;-12.75;8.19;-17.12;59.31;0.89;0.1;5.0;18.568;;;;NaN;;;;0 / 0;1414;2022-11-16 22:12:44:250
-0.0383;-0.1437;9.8833;-0.0167;-0.1529;9.8054;0.0345;-0.0058;0.2071;0.0012;0.0;-0.1368;53.0;-12.75;8.19;-17.12;59.31;0.89;0.1;5.0;18.568;;;;NaN;;;;0 / 0;1424;2022-11-16 22:12:44:260
-0.0383;-0.1437;9.8833;-0.0167;-0.1529;9.8054;0.0345;-0.0058;0.2071;0.0012;0.0;-0.1368;53.0;-12.75;8.19;-17.12;59.31;0.89;0.1;5.0;18.568;;;;NaN;;;;0 / 0;1434;2022-11-16 22:12:44:270
-0.0383;-0.1437;9.8833;-0.0164;-0.1605;9.8053;0.0345;-0.0058;0.2071;0.0012;0.0;-0.1368;53.0;-12.75;8.19;-17.12;59.31;0.89;0.1;5.0;18.568;;;;NaN;;;;0 / 0;1444;2022-11-16 22:12:44:280
-0.0383;-0.1437;9.8833;-0.0164;-0.1605;9.8053;0.0345;-0.0058;0.2071;0.0012;0.0;-0.1368;80.0;-12.75;8.19;-17.12;59.31;0.89;0.1;5.0;18.568;;;;NaN;;;;0 / 0;1454;2022-11-16 22:12:44:290
-0.0383;-0.1437;9.8833;-0.0164;-0.1605;9.8053;0.0345;-0.0058;0.2071;0.0012;0.0;-0.1368;80.0;-12.75;8.19;-17.12;59.31;0.89;0.1;5.0;18.568;;;;NaN;;;;0 / 0;1465;2022-11-16 22:12:44:301
-0.0383;-0.1437;9.8833;-0.0164;-0.1605;9.8053;0.0345;-0.0058;0.2071;0.0012;0.0;-0.1368;80.0;-13.75;8.31;-17.75;59.31;0.89;0.1;5.0;18.568;;;;NaN;;;;0 / 0;1474;2022-11-16 22:12:44:310
0.0;-0.1341;9.8354;-0.0164;-0.1605;9.8053;0.0345;-0.0058;0.2071;0.0;0.0;0.0;80.0;-13.75;8.31;-17.75;59.31;0.89;0.1;5.0;18.568;;;;NaN;;;;0 / 0;1484;2022-11-16 22:12:44:320
0.0;-0.1341;9.8354;-0.0164;-0.1605;9.8053;0.0062;-0.06;0.3054;0.0;0.0;0.0;80.0;-13.75;8.31;-17.75;59.31;0.89;0.1;5.0;18.568;;;;NaN;;;;0 / 0;1494;2022-11-16 22:12:44:330
0.0;-0.1341;9.8354;-0.0164;-0.1605;9.8053;0.0062;-0.06;0.3054;0.0;0.0;0.0;80.0;-13.75;8.31;-17.75;59.31;0.89;0.1;5.0;18.568;;;;NaN;;;;0 / 0;1504;2022-11-16 22:12:44:340
0.0;-0.1341;9.8354;-0.0148;-0.1647;9.8052;0.0062;-0.06;0.3054;0.0;0.0;0.0;80.0;-13.75;8.31;-17.75;59.31;0.89;0.1;5.0;18.568;;;;NaN;;;;0 / 0;1514;2022-11-16 22:12:44:350
0.0;-0.1341;9.8354;-0.0148;-0.1647;9.8052;0.0062;-0.06;0.3054;0.0;0.0;0.0;80.0;-13.75;8.31;-17.75;59.31;0.89;0.1;5.0;18.568;;;;NaN;;;;0 / 0;1525;2022-11-16 22:12:44:361
0.0;-0.1341;9.8354;-0.0148;-0.1647;9.8052;0.0062;-0.06;0.3054;0.0;0.0;0.0;80.0;-13.69;7.88;-17.69;61.25;0.96;0.09;5.0;18.568;;;;NaN;;;;0 / 0;1534;2022-11-16 22:12:44:370
-0.0383;-0.1437;9.845;-0.0148;-0.1647;9.8052;0.0062;-0.06;0.3054;0.0;0.0;0.0;80.0;-13.69;7.88;-17.69;61.25;0.96;0.09;5.0;18.568;;;;NaN;;;;0 / 0;1544;2022-11-16 22:12:44:380
-0.0383;-0.1437;9.845;-0.0148;-0.1647;9.8052;-0.0246;0.0165;0.2759;0.0;0.0;0.0;80.0;-13.69;7.88;-17.69;61.25;0.96;0.09;5.0;18.568;;;;NaN;;;;0 / 0;1554;2022-11-16 22:12:44:390
-0.0383;-0.1437;9.845;-0.0129;-0.1643;9.8052;-0.0246;0.0165;0.2759;0.0;0.0;0.0;80.0;-13.69;7.88;-17.69;61.25;0.96;0.09;5.0;18.568;;;;NaN;;;;0 / 0;1564;2022-11-16 22:12:44:400
-0.0383;-0.1437;9.845;-0.0129;-0.1643;9.8052;-0.0246;0.0165;0.2759;0.0;0.0;0.0;122.0;-13.69;7.88;-17.69;61.25;0.96;0.09;5.0;17.97;;;;NaN;;;;0 / 0;1574;2022-11-16 22:12:44:410
-0.0383;-0.1437;9.845;-0.0129;-0.1643;9.8052;-0.0246;0.0165;0.2759;0.0;0.0;0.0;122.0;-13.69;7.88;-17.69;61.25;0.96;0.09;5.0;17.97;;;;NaN;;;;0 / 0;1584;2022-11-16 22:12:44:420
-0.0383;-0.1437;9.845;-0.0129;-0.1643;9.8052;-0.0246;0.0165;0.2759;0.0;0.0;0.0;122.0;-13.69;7.88;-17.69;61.25;0.96;0.09;5.0;17.97;;;;NaN;;;;0 / 0;1594;2022-11-16 22:12:44:430
-0.0383;-0.1437;9.845;-0.0129;-0.1643;9.8052;-0.0246;0.0165;0.2759;0.0;0.0;0.0;122.0;-13.69;7.88;-17.69;61.25;0.96;0.09;5.0;17.97;;;;NaN;;;;0 / 0;1604;2022-11-16 22:12:44:440
-0.0383;-0.2298;9.8545;-0.0129;-0.1643;9.8052;0.0137;-0.0106;0.3054;0.0;0.0;0.0;122.0;-13.19;8.38;-17.69;61.25;0.96;0.09;5.0;17.97;;;;NaN;;;;0 / 0;1614;2022-11-16 22:12:44:450
-0.0383;-0.2298;9.8545;-0.0145;-0.1666;9.8052;0.0137;-0.0106;0.3054;0.0;0.0;0.0;122.0;-13.19;8.38;-17.69;61.25;0.96;0.09;5.0;17.97;;;;NaN;;;;0 / 0;1625;2022-11-16 22:12:44:461
-0.0383;-0.2298;9.8545;-0.0145;-0.1666;9.8052;0.0137;-0.0106;0.3054;0.0;0.0;0.0;122.0;-13.19;8.38;-17.69;61.25;0.96;0.09;5.0;17.97;;;;NaN;;;;0 / 0;1634;2022-11-16 22:12:44:470
-0.0383;-0.2298;9.8545;-0.0145;-0.1666;9.8052;0.0137;-0.0106;0.3054;0.0;0.0;0.0;122.0;-13.19;8.38;-17.69;61.25;0.96;0.09;5.0;17.97;;;;NaN;;;;0 / 0;1644;2022-11-16 22:12:44:480
-0.0383;-0.2298;9.8545;-0.0145;-0.1666;9.8052;0.0137;-0.0106;0.3054;0.0;0.0;0.0;122.0;-13.19;8.38;-17.69;61.25;0.96;0.09;5.0;17.97;;;;NaN;;;;0 / 0;1654;2022-11-16 22:12:44:490
-0.0383;-0.2298;9.8545;-0.0145;-0.1666;9.8052;0.0137;-0.0106;0.3054;0.0;0.0;0.0;122.0;-13.19;8.38;-17.69;61.25;0.96;0.09;5.0;17.97;;;;NaN;;;;0 / 0;1664;2022-11-16 22:12:44:500
0.0;-0.1628;9.845;-0.0145;-0.1666;9.8052;0.0137;-0.0106;0.3054;0.0;0.0;0.0;122.0;-14.31;8.13;-17.5;61.2;0.97;0.08;5.0;17.97;;;;NaN;;;;0 / 0;1674;2022-11-16 22:12:44:510
0.0;-0.1628;9.845;-0.0145;-0.1666;9.8052;0.0137;-0.0106;0.3054;0.0;0.0;0.0;122.0;-14.31;8.13;-17.5;61.2;0.97;0.08;5.0;17.97;;;;NaN;;;;0 / 0;1684;2022-11-16 22:12:44:520
0.0;-0.1628;9.845;-0.0141;-0.1689;9.8051;-0.0054;0.0218;0.2074;0.0;0.0;0.0;151.0;-14.31;8.13;-17.5;61.2;0.97;0.08;5.0;17.97;;;;NaN;;;;0 / 0;1694;2022-11-16 22:12:44:530
0.0;-0.1628;9.845;-0.0141;-0.1689;9.8051;-0.0054;0.0218;0.2074;0.0;0.0;0.0;151.0;-14.31;8.13;-17.5;61.2;0.97;0.08;5.0;17.97;;;;NaN;;;;0 / 0;1705;2022-11-16 22:12:44:541
0.0;-0.1628;9.845;-0.0141;-0.1689;9.8051;-0.0054;0.0218;0.2074;0.0;0.0;0.0;151.0;-14.31;8.13;-17.5;61.2;0.97;0.08;5.0;17.97;;;;NaN;;;;0 / 0;1714;2022-11-16 22:12:44:550
0.0;-0.1628;9.845;-0.0141;-0.1689;9.8051;-0.0054;0.0218;0.2074;0.0;0.0;0.0;151.0;-14.31;8.13;-17.5;61.2;0.97;0.08;5.0;17.97;;;;NaN;;;;0 / 0;1724;2022-11-16 22:12:44:560
0.0;-0.1628;9.845;-0.0141;-0.1689;9.8051;-0.0054;0.0218;0.2074;0.0;0.0;0.0;151.0;-14.31;8.13;-17.5;61.2;0.97;0.08;5.0;17.97;;;;NaN;;;;0 / 0;1734;2022-11-16 22:12:44:570
-0.0192;-0.1915;9.8641;-0.0141;-0.1689;9.8051;-0.0054;0.0218;0.2074;-0.0024;-0.0195;-0.1344;151.0;-13.37;7.75;-17.12;61.2;0.97;0.08;5.0;17.97;;;;NaN;;;;0 / 0;1744;2022-11-16 22:12:44:580
-0.0192;-0.1915;9.8641;-0.0126;-0.1708;9.8051;-0.0364;0.0531;0.2564;-0.0024;-0.0195;-0.1344;151.0;-13.37;7.75;-17.12;61.2;0.97;0.08;5.0;17.97;;;;NaN;;;;0 / 0;1754;2022-11-16 22:12:44:590
-0.0192;-0.1915;9.8641;-0.0126;-0.1708;9.8051;-0.0364;0.0531;0.2564;-0.0024;-0.0195;-0.1344;151.0;-13.37;7.75;-17.12;61.2;0.97;0.08;5.0;17.97;;;;NaN;;;;0 / 0;1764;2022-11-16 22:12:44:600
-0.0192;-0.1915;9.8641;-0.0126;-0.1708;9.8051;-0.0364;0.0531;0.2564;-0.0024;-0.0195;-0.1344;151.0;-13.37;7.75;-17.12;61.2;0.97;0.08;5.0;17.97;;;;NaN;;;;0 / 0;1774;2022-11-16 22:12:44:610
-0.0192;-0.1915;9.8641;-0.0126;-0.1708;9.8051;-0.0364;0.0531;0.2564;-0.0024;-0.0195;-0.1344;151.0;-13.37;7.75;-17.12;61.2;0.97;0.08;5.0;17.97;;;;NaN;;;;0 / 0;1784;2022-11-16 22:12:44:620
-0.0192;-0.1915;9.8641;-0.0126;-0.1708;9.8051;-0.0364;0.0531;0.2564;-0.0024;-0.0195;-0.1344;151.0;-13.37;7.75;-17.12;61.2;0.97;0.08;5.0;17.97;;;;NaN;;;;0 / 0;1794;2022-11-16 22:12:44:630
0.0;-0.1532;9.8258;-0.0126;-0.1708;9.8051;-0.0364;0.0531;0.2564;-0.0024;-0.0195;-0.1344;151.0;-13.37;7.75;-17.12;61.2;0.97;0.08;5.0;17.97;;;;NaN;;;;0 / 0;1804;2022-11-16 22:12:44:640
0.0;-0.1532;9.8258;-0.0091;-0.1696;9.8051;-0.0364;0.0531;0.2564;-0.0024;-0.0195;-0.1344;167.0;-13.5;8.69;-17.75;56.28;0.99;0.05;5.0;17.97;;;;NaN;;;;0 / 0;1814;2022-11-16 22:12:44:650
0.0;-0.1532;9.8258;-0.0091;-0.1696;9.8051;-0.0364;0.0531;0.2564;-0.0024;-0.0195;-0.1344;167.0;-13.5;8.69;-17.75;56.28;0.99;0.05;5.0;17.97;;;;NaN;;;;0 / 0;1824;2022-11-16 22:12:44:660
0.0;-0.1532;9.8258;-0.0091;-0.1696;9.8051;-0.0096;-0.0535;0.2564;-0.0024;-0.0195;-0.1344;167.0;-13.5;8.69;-17.75;56.28;0.99;0.05;5.0;17.97;;;;NaN;;;;0 / 0;1834;2022-11-16 22:12:44:670
0.0;-0.1532;9.8258;-0.0091;-0.1696;9.8051;-0.0096;-0.0535;0.2564;-0.0024;-0.0195;-0.1344;167.0;-13.5;8.69;-17.75;56.28;0.99;0.05;5.0;17.97;;;;NaN;;;;0 / 0;1844;2022-11-16 22:12:44:680
0.0;-0.1532;9.8258;-0.0091;-0.1696;9.8051;-0.0096;-0.0535;0.2564;-0.0024;-0.0195;-0.1344;167.0;-13.5;8.69;-17.75;56.28;0.99;0.05;5.0;17.97;;;;NaN;;;;0 / 0;1855;2022-11-16 22:12:44:691
0.0;-0.1532;9.8258;-0.0091;-0.1696;9.8051;-0.0096;-0.0535;0.2564;-0.0024;-0.0195;-0.1344;167.0;-13.5;8.69;-17.75;56.28;0.99;0.05;5.0;17.97;;;;NaN;;;;0 / 0;1864;2022-11-16 22:12:44:700
-0.0287;-0.182;9.7971;-0.0072;-0.1671;9.8052;-0.0096;-0.0535;0.2564;0.0061;-0.0073;0.0782;167.0;-13.5;8.69;-17.75;56.28;0.99;0.05;5.0;17.97;;;;NaN;;;;0 / 0;1875;2022-11-16 22:12:44:711
-0.0287;-0.182;9.7971;-0.0072;-0.1671;9.8052;-0.0096;-0.0535;0.2564;0.0061;-0.0073;0.0782;167.0;-13.5;8.69;-17.75;56.28;0.99;0.05;5.0;17.97;;;;NaN;;;;0 / 0;1884;2022-11-16 22:12:44:720
-0.0287;-0.182;9.7971;-0.0072;-0.1671;9.8052;-0.0417;-0.0659;0.2368;0.0061;-0.0073;0.0782;167.0;-13.31;8.63;-16.75;56.28;0.99;0.05;5.0;18.289;;;;NaN;;;;0 / 0;1894;2022-11-16 22:12:44:730
-0.0287;-0.182;9.7971;-0.0072;-0.1671;9.8052;-0.0417;-0.0659;0.2368;0.0061;-0.0073;0.0782;167.0;-13.31;8.63;-16.75;56.28;0.99;0.05;5.0;18.289;;;;NaN;;;;0 / 0;1904;2022-11-16 22:12:44:740
-0.0287;-0.182;9.7971;-0.0072;-0.1671;9.8052;-0.0417;-0.0659;0.2368;0.0061;-0.0073;0.0782;167.0;-13.31;8.63;-16.75;56.28;0.99;0.05;5.0;18.289;;;;NaN;;;;0 / 0;1914;2022-11-16 22:12:44:750
-0.0287;-0.182;9.7971;-0.0095;-0.1689;9.8051;-0.0417;-0.0659;0.2368;0.0061;-0.0073;0.0782;167.0;-13.31;8.63;-16.75;56.28;0.99;0.05;5.0;18.289;;;;NaN;;;;0 / 0;1924;2022-11-16 22:12:44:760
0.0;-0.0958;9.8354;-0.0095;-0.1689;9.8051;-0.0417;-0.0659;0.2368;0.0061;-0.0073;0.0782;170.0;-13.31;8.63;-16.75;56.28;0.99;0.05;5.0;18.289;;;;NaN;;;;0 / 0;1934;2022-11-16 22:12:44:770
0.0;-0.0958;9.8354;-0.0095;-0.1689;9.8051;0.0095;0.0678;0.2858;0.0061;-0.0073;0.0782;170.0;-13.31;8.63;-16.75;56.28;0.99;0.05;5.0;18.289;;;;NaN;;;;0 / 0;1944;2022-11-16 22:12:44:780
0.0;-0.0958;9.8354;-0.0095;-0.1689;9.8051;0.0095;0.0678;0.2858;0.0061;-0.0073;0.0782;170.0;-13.12;8.25;-16.75;59.37;0.99;0.06;5.0;18.289;;;;NaN;;;;0 / 0;1954;2022-11-16 22:12:44:790
0.0;-0.0958;9.8354;-0.0095;-0.1689;9.8051;0.0095;0.0678;0.2858;0.0061;-0.0073;0.0782;170.0;-13.12;8.25;-16.75;59.37;0.99;0.06;5.0;18.289;;;;NaN;;;;0 / 0;1964;2022-11-16 22:12:44:800
0.0;-0.0958;9.8354;-0.0095;-0.1689;9.8051;0.0095;0.0678;0.2858;0.0061;-0.0073;0.0782;170.0;-13.12;8.25;-16.75;59.37;0.99;0.06;5.0;18.289;;;;NaN;;;;0 / 0;1974;2022-11-16 22:12:44:810
0.0;-0.0958;9.8354;-0.0095;-0.1689;9.8051;0.0095;0.0678;0.2858;0.0061;-0.0073;0.0782;170.0;-13.12;8.25;-16.75;59.37;0.99;0.06;5.0;18.289;;;;NaN;;;;0 / 0;1984;2022-11-16 22:12:44:820
0.0;-0.0958;9.8354;-0.0118;-0.1605;9.8053;0.0095;0.0678;0.2858;0.0061;-0.0073;0.0782;170.0;-13.12;8.25;-16.75;59.37;0.99;0.06;5.0;18.289;;;;NaN;;;;0 / 0;1994;2022-11-16 22:12:44:830
0.0;-0.2203;9.8258;-0.0118;-0.1605;9.8053;0.0095;0.0678;0.2858;0.0037;-0.0061;0.1906;170.0;-13.12;8.25;-16.75;59.37;0.99;0.06;5.0;18.289;;;;NaN;;;;0 / 0;2004;2022-11-16 22:12:44:840
0.0;-0.2203;9.8258;-0.0118;-0.1605;9.8053;-0.0544;-0.0151;0.1778;0.0037;-0.0061;0.1906;170.0;-13.12;8.25;-16.75;59.37;0.99;0.06;5.0;18.289;;;;NaN;;;;0 / 0;2014;2022-11-16 22:12:44:850
0.0;-0.2203;9.8258;-0.0118;-0.1605;9.8053;-0.0544;-0.0151;0.1778;0.0037;-0.0061;0.1906;170.0;-13.12;8.25;-16.75;59.37;0.99;0.06;5.0;18.289;;;;NaN;;;;0 / 0;2024;2022-11-16 22:12:44:860
0.0;-0.2203;9.8258;-0.0118;-0.1605;9.8053;-0.0544;-0.0151;0.1778;0.0037;-0.0061;0.1906;170.0;-12.94;8.06;-17.37;59.37;0.99;0.06;5.0;18.289;;;;NaN;;;;0 / 0;2034;2022-11-16 22:12:44:870
0.0;-0.2203;9.8258;-0.0168;-0.1624;9.8052;-0.0544;-0.0151;0.1778;0.0037;-0.0061;0.1906;170.0;-12.94;8.06;-17.37;59.37;0.99;0.06;5.0;18.289;;;;NaN;;;;0 / 0;2044;2022-11-16 22:12:44:880
0.0;-0.2203;9.8258;-0.0168;-0.1624;9.8052;-0.0544;-0.0151;0.1778;0.0037;-0.0061;0.1906;173.0;-12.94;8.06;-17.37;59.37;0.99;0.06;5.0;18.289;;;;NaN;;;;0 / 0;2054;2022-11-16 22:12:44:890
-0.0287;-0.1437;9.8162;-0.0168;-0.1624;9.8052;-0.0544;-0.0151;0.1778;0.0037;-0.0061;0.1906;173.0;-12.94;8.06;-17.37;59.37;0.99;0.06;5.0;18.289;;;;NaN;;;;0 / 0;2064;2022-11-16 22:12:44:900
-0.0287;-0.1437;9.8162;-0.0168;-0.1624;9.8052;-0.0122;0.0138;0.2465;0.0037;-0.0061;0.1906;173.0;-12.94;8.06;-17.37;59.37;0.99;0.06;5.0;18.289;;;;NaN;;;;0 / 0;2074;2022-11-16 22:12:44:910
-0.0287;-0.1437;9.8162;-0.0168;-0.1624;9.8052;-0.0122;0.0138;0.2465;0.0037;-0.0061;0.1906;173.0;-12.94;8.06;-17.37;59.37;0.99;0.06;5.0;18.289;;;;NaN;;;;0 / 0;2084;2022-11-16 22:12:44:920
-0.0287;-0.1437;9.8162;-0.0168;-0.1624;9.8052;-0.0122;0.0138;0.2465;0.0037;-0.0061;0.1906;173.0;-12.94;8.06;-17.37;59.37;0.99;0.06;5.0;18.289;;;;NaN;;;;0 / 0;2094;2022-11-16 22:12:44:930
-0.0287;-0.1437;9.8162;-0.0187;-0.1595;9.8053;-0.0122;0.0138;0.2465;0.0037;-0.0061;0.1906;173.0;-13.31;8.31;-17.56;59.42;0.95;0.1;5.0;18.289;;;;NaN;;;;0 / 0;2104;2022-11-16 22:12:44:940
-0.0287;-0.1437;9.8162;-0.0187;-0.1595;9.8053;-0.0122;0.0138;0.2465;0.0037;-0.0061;0.1906;173.0;-13.31;8.31;-17.56;59.42;0.95;0.1;5.0;18.289;;;;NaN;;;;0 / 0;2114;2022-11-16 22:12:44:950
-0.0287;-0.1437;9.8162;-0.0187;-0.1595;9.8053;0.0179;0.0013;0.2758;0.0037;-0.0061;0.1906;173.0;-13.31;8.31;-17.56;59.42;0.95;0.1;5.0;18.289;;;;NaN;;;;0 / 0;2124;2022-11-16 22:12:44:960
0.0;-0.1628;9.8545;-0.0187;-0.1595;9.8053;0.0179;0.0013;0.2758;0.0;0.0;0.0;173.0;-13.31;8.31;-17.56;59.42;0.95;0.1;5.0;18.289;;;;NaN;;;;0 / 0;2134;2022-11-16 22:12:44:970
0.0;-0.1628;9.8545;-0.0187;-0.1595;9.8053;0.0179;0.0013;0.2758;0.0;0.0;0.0;173.0;-13.31;8.31;-17.56;59.42;0.95;0.1;5.0;18.289;;;;NaN;;;;0 / 0;2145;2022-11-16 22:12:44:981
0.0;-0.1628;9.8545;-0.0187;-0.1595;9.8053;0.0179;0.0013;0.2758;0.0;0.0;0.0;173.0;-13.31;8.31;-17.56;59.42;0.95;0.1;5.0;18.289;;;;NaN;;;;0 / 0;2154;2022-11-16 22:12:44:990
0.0;-0.1628;9.8545;-0.0214;-0.1613;9.8052;0.0179;0.0013;0.2758;0.0;0.0;0.0;173.0;-13.31;8.31;-17.56;59.42;0.95;0.1;5.0;18.289;;;;NaN;;;;0 / 0;2164;2022-11-16 22:12:45:000
0.0;-0.1628;9.8545;-0.0214;-0.1613;9.8052;0.0179;0.0013;0.2758;0.0;0.0;0.0;173.0;-13.12;8.56;-16.44;59.42;0.95;0.1;5.0;18.289;;;;NaN;;;;0 / 0;2174;2022-11-16 22:12:45:010
0.0;-0.1628;9.8545;-0.0214;-0.1613;9.8052;0.0179;0.0013;0.2758;0.0;0.0;0.0;173.0;-13.12;8.56;-16.44;59.42;0.95;0.1;5.0;18.289;;;;NaN;;;;0 / 0;2184;2022-11-16 22:12:45:020
0.0287;-0.1532;9.8162;-0.0214;-0.1613;9.8052;0.0206;-0.0423;0.3053;0.0;0.0;0.0;173.0;-13.12;8.56;-16.44;59.42;0.95;0.1;5.0;18.289;;;;NaN;;;;0 / 0;2194;2022-11-16 22:12:45:030
0.0287;-0.1532;9.8162;-0.0214;-0.1613;9.8052;0.0206;-0.0423;0.3053;0.0;0.0;0.0;173.0;-13.12;8.56;-16.44;59.42;0.95;0.1;5.0;18.289;;;;NaN;;;;0 / 0;2204;2022-11-16 22:12:45:040
0.0287;-0.1532;9.8162;-0.0214;-0.1613;9.8052;0.0206;-0.0423;0.3053;0.0;0.0;0.0;173.0;-13.12;8.56;-16.44;59.42;0.95;0.1;5.0;18.158;;;;NaN;;;;0 / 0;2214;2022-11-16 22:12:45:050
0.0287;-0.1532;9.8162;-0.0214;-0.1613;9.8052;0.0206;-0.0423;0.3053;0.0;0.0;0.0;173.0;-13.12;8.56;-16.44;59.42;0.95;0.1;5.0;18.158;;;;NaN;;;;0 / 0;2224;2022-11-16 22:12:45:060
0.0287;-0.1532;9.8162;-0.0225;-0.1625;9.8052;0.0206;-0.0423;0.3053;0.0;0.0;0.0;173.0;-12.94;8.13;-17.31;59.38;0.95;0.13;5.0;18.158;;;;NaN;;;;0 / 0;2235;2022-11-16 22:12:45:071
0.0287;-0.1532;9.8162;-0.0225;-0.1625;9.8052;0.0206;-0.0423;0.3053;0.0;0.0;0.0;173.0;-12.94;8.13;-17.31;59.38;0.95;0.13;5.0;18.158;;;;NaN;;;;0 / 0;2244;2022-11-16 22:12:45:080
0.0287;-0.1532;9.8162;-0.0225;-0.1625;9.8052;0.0206;0.0259;0.2857;0.0;0.0;0.0;173.0;-12.94;8.13;-17.31;59.38;0.95;0.13;5.0;18.158;;;;NaN;;;;0 / 0;2254;2022-11-16 22:12:45:090
0.0096;-0.1437;9.8067;-0.0225;-0.1625;9.8052;0.0206;0.0259;0.2857;0.0;0.0;0.0;173.0;-12.94;8.13;-17.31;59.38;0.95;0.13;5.0;18.158;;;;NaN;;;;0 / 0;2265;2022-11-16 22:12:45:101
0.0096;-0.1437;9.8067;-0.0225;-0.1625;9.8052;0.0206;0.0259;0.2857;0.0;0.0;0.0;173.0;-12.94;8.13;-17.31;59.38;0.95;0.13;5.0;18.158;;;;NaN;;;;0 / 0;2274;2022-11-16 22:12:45:110
0.0096;-0.1437;9.8067;-0.0225;-0.1625;9.8052;0.0206;0.0259;0.2857;0.0;0.0;0.0;173.0;-12.94;8.13;-17.31;59.38;0.95;0.13;5.0;18.158;;;;NaN;;;;0 / 0;2284;2022-11-16 22:12:45:120
0.0096;-0.1437;9.8067;-0.0206;-0.1624;9.8052;0.0206;0.0259;0.2857;0.0;0.0;0.0;173.0;-12.94;8.13;-17.31;59.38;0.95;0.13;5.0;18.158;;;;NaN;;;;0 / 0;2294;2022-11-16 22:12:45:130
0.0096;-0.1437;9.8067;-0.0206;-0.1624;9.8052;0.0206;0.0259;0.2857;0.0;0.0;0.0;173.0;-12.94;8.13;-17.31;59.38;0.95;0.13;5.0;18.158;;;;NaN;;;;0 / 0;2304;2022-11-16 22:12:45:140
0.0096;-0.1437;9.8067;-0.0206;-0.1624;9.8052;-0.017;-0.0038;0.2269;0.0;0.0;0.0;173.0;-13.12;7.88;-17.06;59.38;0.95;0.13;5.0;18.158;;;;NaN;;;;0 / 0;2314;2022-11-16 22:12:45:150
-0.0192;-0.1915;9.8354;-0.0206;-0.1624;9.8052;-0.017;-0.0038;0.2269;0.0;0.0;0.0;173.0;-13.12;7.88;-17.06;59.38;0.95;0.13;5.0;18.158;;;;NaN;;;;0 / 0;2325;2022-11-16 22:12:45:161
-0.0192;-0.1915;9.8354;-0.0206;-0.1624;9.8052;-0.017;-0.0038;0.2269;0.0;0.0;0.0;173.0;-13.12;7.88;-17.06;59.38;0.95;0.13;5.0;18.158;;;;NaN;;;;0 / 0;2334;2022-11-16 22:12:45:170
-0.0192;-0.1915;9.8354;-0.0244;-0.1589;9.8053;-0.017;-0.0038;0.2269;0.0;0.0;0.0;173.0;-13.12;7.88;-17.06;59.38;0.95;0.13;5.0;18.158;;;;NaN;;;;0 / 0;2344;2022-11-16 22:12:45:180
-0.0192;-0.1915;9.8354;-0.0244;-0.1589;9.8053;-0.017;-0.0038;0.2269;0.0;0.0;0.0;173.0;-13.12;7.88;-17.06;59.38;0.95;0.13;5.0;18.158;;;;NaN;;;;0 / 0;2354;2022-11-16 22:12:45:190
-0.0192;-0.1915;9.8354;-0.0244;-0.1589;9.8053;-0.017;-0.0038;0.2661;0.0;0.0;0.0;173.0;-13.12;7.88;-17.06;59.38;0.95;0.13;5.0;18.158;;;;NaN;;;;0 / 0;2364;2022-11-16 22:12:45:200
-0.0192;-0.1915;9.8354;-0.0244;-0.1589;9.8053;0.0436;-0.0344;0.2661;0.0;0.0;0.0;173.0;-13.19;8.25;-17.25;59.36;0.93;0.14;5.0;18.158;;;;NaN;;;;0 / 0;2374;2022-11-16 22:12:45:210
-0.0192;-0.1915;9.8354;-0.0244;-0.1589;9.8053;0.0436;-0.0344;0.2661;0.0;0.0;0.0;173.0;-13.19;8.25;-17.25;59.36;0.93;0.14;5.0;18.158;;;;NaN;;;;0 / 0;2384;2022-11-16 22:12:45:220
0.0;-0.1628;9.845;-0.0244;-0.1589;9.8053;0.0436;-0.0344;0.2661;0.0;0.0;0.0;173.0;-13.19;8.25;-17.25;59.36;0.93;0.14;5.0;18.158;;;;NaN;;;;0 / 0;2394;2022-11-16 22:12:45:230
0.0;-0.1628;9.845;-0.0244;-0.1604;9.8053;0.0436;-0.0344;0.2661;0.0;0.0;0.0;173.0;-13.19;8.25;-17.25;59.36;0.93;0.14;5.0;18.158;;;;NaN;;;;0 / 0;2404;2022-11-16 22:12:45:240
0.0;-0.1628;9.845;-0.0244;-0.1604;9.8053;0.0436;-0.0344;0.2661;0.0;0.0;0.0;173.0;-13.19;8.25;-17.25;59.36;0.93;0.14;5.0;18.158;;;;NaN;;;;0 / 0;2418;2022-11-16 22:12:45:254
0.0;-0.1628;9.845;-0.0244;-0.1604;9.8053;0.0436;-0.0344;0.2661;0.0;0.0;0.0;173.0;-13.19;8.25;-17.25;59.36;0.93;0.14;5.0;18.158;;;;NaN;;;;0 / 0;2424;2022-11-16 22:12:45:260
0.0;-0.1628;9.845;-0.0244;-0.1604;9.8053;-0.0238;0.0394;0.2072;0.0;0.0;0.0;173.0;-13.19;8.25;-17.25;59.36;0.93;0.14;5.0;18.158;;;;NaN;;;;0 / 0;2434;2022-11-16 22:12:45:270
0.0;-0.1628;9.845;-0.0244;-0.1604;9.8053;-0.0238;0.0394;0.2072;0.0;0.0;0.0;173.0;-13.19;8.25;-17.25;59.36;0.93;0.14;5.0;18.158;;;;NaN;;;;0 / 0;2445;2022-11-16 22:12:45:281
-0.0383;-0.2011;9.8067;-0.0244;-0.1604;9.8053;-0.0238;0.0394;0.2072;0.0;0.0;0.0;173.0;-12.94;8.19;-17.69;59.36;0.93;0.14;5.0;18.158;;;;NaN;;;;0 / 0;2454;2022-11-16 22:12:45:290
-0.0383;-0.2011;9.8067;-0.0244;-0.1604;9.8053;-0.0238;0.0394;0.2072;0.0;0.0;0.0;173.0;-12.94;8.19;-17.69;59.36;0.93;0.14;5.0;18.158;;;;NaN;;;;0 / 0;2465;2022-11-16 22:12:45:301
-0.0383;-0.2011;9.8067;-0.0245;-0.159;9.8053;-0.0238;0.0394;0.2072;0.0;0.0;0.0;173.0;-12.94;8.19;-17.69;59.36;0.93;0.14;5.0;18.158;;;;NaN;;;;0 / 0;2474;2022-11-16 22:12:45:310
-0.0383;-0.2011;9.8067;-0.0245;-0.159;9.8053;-0.0238;0.0394;0.2072;0.0;0.0;0.0;173.0;-12.94;8.19;-17.69;59.36;0.93;0.14;5.0;18.158;;;;NaN;;;;0 / 0;2485;2022-11-16 22:12:45:321
-0.0383;-0.2011;9.8067;-0.0245;-0.159;9.8053;0.0233;-0.0457;0.2857;0.0;0.0;0.0;173.0;-12.94;8.19;-17.69;59.36;0.93;0.14;5.0;18.158;;;;NaN;;;;0 / 0;2495;2022-11-16 22:12:45:331
-0.0383;-0.2011;9.8067;-0.0245;-0.159;9.8053;0.0233;-0.0457;0.2857;0.0;0.0;0.0;173.0;-12.94;8.19;-17.69;59.36;0.93;0.14;5.0;18.158;;;;NaN;;;;0 / 0;2504;2022-11-16 22:12:45:340
-0.0383;-0.2011;9.8067;-0.0245;-0.159;9.8053;0.0233;-0.0457;0.2857;0.0;0.0;0.0;173.0;-12.94;8.19;-17.69;59.36;0.93;0.14;5.0;17.742;;;;NaN;;;;0 / 0;2514;2022-11-16 22:12:45:350
-0.0575;-0.1628;9.8258;-0.0245;-0.159;9.8053;0.0233;-0.0457;0.2857;0.0;0.0;-0.0782;173.0;-12.94;8.19;-17.69;59.36;0.93;0.14;5.0;17.742;;;;NaN;;;;0 / 0;2525;2022-11-16 22:12:45:361
-0.0575;-0.1628;9.8258;-0.0213;-0.1582;9.8053;0.0233;-0.0457;0.2857;0.0;0.0;-0.0782;173.0;-13.31;7.38;-17.75;62.77;0.92;0.12;5.0;17.742;;;;NaN;;;;0 / 0;2535;2022-11-16 22:12:45:371
-0.0575;-0.1628;9.8258;-0.0213;-0.1582;9.8053;0.0233;-0.0457;0.2857;0.0;0.0;-0.0782;173.0;-13.31;7.38;-17.75;62.77;0.92;0.12;5.0;17.742;;;;NaN;;;;0 / 0;2544;2022-11-16 22:12:45:380
-0.0575;-0.1628;9.8258;-0.0213;-0.1582;9.8053;0.0233;-0.0457;0.2857;0.0;0.0;-0.0782;173.0;-13.31;7.38;-17.75;62.77;0.92;0.12;5.0;17.742;;;;NaN;;;;0 / 0;2554;2022-11-16 22:12:45:390
-0.0575;-0.1628;9.8258;-0.0213;-0.1582;9.8053;0.0233;-0.0457;0.2857;0.0;0.0;-0.0782;173.0;-13.31;7.38;-17.75;62.77;0.92;0.12;5.0;17.742;;;;NaN;;;;0 / 0;2564;2022-11-16 22:12:45:400
-0.0575;-0.1628;9.8258;-0.0213;-0.1582;9.8053;-0.0095;-0.0261;0.2268;0.0;0.0;-0.0782;173.0;-13.31;7.38;-17.75;62.77;0.92;0.12;5.0;17.742;;;;NaN;;;;0 / 0;2575;2022-11-16 22:12:45:411
-0.0575;-0.1341;9.845;-0.0213;-0.1582;9.8053;-0.0095;-0.0261;0.2268;0.0;0.0;-0.0782;173.0;-13.31;7.38;-17.75;62.77;0.92;0.12;5.0;17.742;;;;NaN;;;;0 / 0;2585;2022-11-16 22:12:45:421
-0.0096;-0.1341;9.845;-0.0179;-0.1608;9.8053;-0.0095;-0.0261;0.2268;0.0;0.0;-0.0782;173.0;-13.31;7.38;-17.75;62.77;0.92;0.12;5.0;17.742;;;;NaN;;;;0 / 0;2594;2022-11-16 22:12:45:430
-0.0096;-0.1341;9.845;-0.0179;-0.1608;9.8053;-0.0095;-0.0261;0.2268;0.0;0.0;-0.0782;173.0;-13.31;7.38;-17.75;62.77;0.92;0.12;5.0;17.742;;;;NaN;;;;0 / 0;2604;2022-11-16 22:12:45:440
-0.0096;-0.1341;9.845;-0.0179;-0.1608;9.8053;-0.0095;-0.0261;0.2268;0.0;0.0;0.0;173.0;-12.5;7.94;-17.69;62.77;0.92;0.12;5.0;17.742;;;;NaN;;;;0 / 0;2614;2022-11-16 22:12:45:450
-0.0096;-0.1341;9.845;-0.0179;-0.1608;9.8053;-0.0095;-0.0261;0.2268;0.0;0.0;0.0;173.0;-12.5;7.94;-17.69;62.77;0.92;0.12;5.0;17.742;;;;NaN;;;;0 / 0;2624;2022-11-16 22:12:45:460
-0.0096;-0.1341;9.845;-0.0179;-0.1608;9.8053;0.0183;-0.0175;0.2562;0.0;0.0;0.0;173.0;-12.5;7.94;-17.69;62.77;0.92;0.12;5.0;17.742;;;;NaN;;;;0 / 0;2635;2022-11-16 22:12:45:471
-0.0096;-0.1341;9.845;-0.0179;-0.1608;9.8053;0.0183;-0.0175;0.2562;0.0;0.0;0.0;173.0;-12.5;7.94;-17.69;62.77;0.92;0.12;5.0;17.742;;;;NaN;;;;0 / 0;2644;2022-11-16 22:12:45:480
-0.0479;-0.1724;9.8067;-0.0164;-0.1582;9.8053;0.0183;-0.0175;0.2562;0.0;0.0;0.0;173.0;-12.5;7.94;-17.69;62.77;0.92;0.12;5.0;17.742;;;;NaN;;;;0 / 0;2654;2022-11-16 22:12:45:490
-0.0479;-0.1724;9.8067;-0.0164;-0.1582;9.8053;0.0183;-0.0175;0.2562;0.0;0.0;0.0;173.0;-12.5;7.94;-17.69;62.77;0.92;0.12;5.0;17.742;;;;NaN;;;;0 / 0;2664;2022-11-16 22:12:45:500
-0.0479;-0.1724;9.8067;-0.0164;-0.1582;9.8053;0.0183;-0.0175;0.2562;0.0;0.0;0.0;173.0;-12.94;8.06;-17.19;59.33;0.92;0.1;5.0;17.742;;;;NaN;;;;0 / 0;2674;2022-11-16 22:12:45:510
-0.0479;-0.1724;9.8067;-0.0164;-0.1582;9.8053;-0.0114;-0.0126;0.2365;0.0;0.0;0.0;173.0;-12.94;8.06;-17.19;59.33;0.92;0.1;5.0;17.742;;;;NaN;;;;0 / 0;2686;2022-11-16 22:12:45:522
-0.0479;-0.1724;9.8067;-0.0164;-0.1582;9.8053;-0.0114;-0.0126;0.2365;0.0;0.0;0.0;173.0;-12.94;8.06;-17.19;59.33;0.92;0.1;5.0;17.742;;;;NaN;;;;0 / 0;2695;2022-11-16 22:12:45:531
-0.0479;-0.1724;9.8067;-0.0172;-0.1513;9.8054;-0.0114;-0.0126;0.2365;0.0;0.0;0.0;173.0;-12.94;8.06;-17.19;59.33;0.92;0.1;5.0;17.742;;;;NaN;;;;0 / 0;2705;2022-11-16 22:12:45:541
0.0096;-0.1724;9.7779;-0.0172;-0.1513;9.8054;-0.0114;-0.0126;0.2365;0.0;0.0;0.0;173.0;-12.94;8.06;-17.19;59.33;0.92;0.1;5.0;17.742;;;;NaN;;;;0 / 0;2714;2022-11-16 22:12:45:550
0.0096;-0.1724;9.7779;-0.0172;-0.1513;9.8054;-0.0114;-0.0126;0.2365;0.0;0.0;0.0;173.0;-12.94;8.06;-17.19;59.33;0.92;0.1;5.0;17.742;;;;NaN;;;;0 / 0;2724;2022-11-16 22:12:45:560
0.0096;-0.1724;9.7779;-0.0172;-0.1513;9.8054;-0.0114;-0.0126;0.2365;0.0;0.0;0.0;173.0;-12.94;8.06;-17.19;59.33;0.92;0.1;5.0;17.742;;;;NaN;;;;0 / 0;2734;2022-11-16 22:12:45:570
0.0096;-0.1724;9.7779;-0.0172;-0.1513;9.8054;-0.0114;-0.0126;0.2365;0.0;0.0;0.0;173.0;-12.94;8.06;-17.19;59.33;0.92;0.1;5.0;17.742;;;;NaN;;;;0 / 0;2744;2022-11-16 22:12:45:580
0.0096;-0.1724;9.7779;-0.0172;-0.1513;9.8054;0.0062;-0.0416;0.2365;0.0;0.0;0.0;173.0;-13.19;7.5;-18.44;59.33;0.92;0.1;5.0;17.742;;;;NaN;;;;0 / 0;2754;2022-11-16 22:12:45:590
0.0096;-0.1724;9.7779;-0.0172;-0.1513;9.8053;0.0062;-0.0416;0.2365;0.0;0.0;0.0;173.0;-13.19;7.5;-18.44;59.33;0.92;0.1;5.0;17.742;;;;NaN;;;;0 / 0;2764;2022-11-16 22:12:45:600
0.0096;-0.1724;9.7779;-0.0164;-0.1571;9.8053;0.0062;-0.0416;0.2365;0.0;0.0;0.0;173.0;-13.19;7.5;-18.44;59.33;0.92;0.1;5.0;17.742;;;;NaN;;;;0 / 0;2775;2022-11-16 22:12:45:611
0.0192;-0.1532;9.8258;-0.0164;-0.1571;9.8053;0.0062;-0.0416;0.2365;0.0;0.0;0.0;173.0;-13.19;7.5;-18.44;59.33;0.92;0.1;5.0;17.742;;;;NaN;;;;0 / 0;2784;2022-11-16 22:12:45:620
0.0192;-0.1532;9.8258;-0.0164;-0.1571;9.8053;0.0062;-0.0416;0.2365;0.0;0.0;0.0;173.0;-13.19;7.5;-18.44;59.33;0.92;0.1;5.0;17.742;;;;NaN;;;;0 / 0;2794;2022-11-16 22:12:45:630
0.0192;-0.1532;9.8258;-0.0164;-0.1571;9.8053;0.0062;-0.0416;0.2365;0.0;0.0;0.0;173.0;-13.19;7.5;-18.44;59.33;0.92;0.1;5.0;17.742;;;;NaN;;;;0 / 0;2805;2022-11-16 22:12:45:641
0.0192;-0.1532;9.8258;-0.0164;-0.1571;9.8053;0.0058;0.0489;0.2464;0.0;0.0;0.0;173.0;-13.31;7.75;-18.12;59.38;0.92;0.1;5.0;17.742;;;;NaN;;;;0 / 0;2814;2022-11-16 22:12:45:650
0.0192;-0.1532;9.8258;-0.0164;-0.1571;9.8053;0.0058;0.0489;0.2464;0.0;0.0;0.0;173.0;-13.31;7.75;-18.12;59.38;0.92;0.1;5.0;17.742;;;;NaN;;;;0 / 0;2824;2022-11-16 22:12:45:660
0.0192;-0.1532;9.8258;-0.0156;-0.1571;9.8053;0.0058;0.0489;0.2464;0.0;0.0;0.0;173.0;-13.31;7.75;-18.12;59.38;0.92;0.1;5.0;17.742;;;;NaN;;;;0 / 0;2834;2022-11-16 22:12:45:670
-0.0192;-0.1245;9.8258;-0.0156;-0.1571;9.8053;0.0058;0.0489;0.2464;0.0;0.0;0.0;173.0;-13.31;7.75;-18.12;59.38;0.92;0.1;5.0;17.742;;;;NaN;;;;0 / 0;2844;2022-11-16 22:12:45:680
-0.0192;-0.1245;9.8258;-0.0156;-0.1571;9.8053;0.0058;0.0489;0.2464;0.0;0.0;0.0;173.0;-13.31;7.75;-18.12;59.38;0.92;0.1;5.0;17.742;;;;NaN;;;;0 / 0;2854;2022-11-16 22:12:45:690
-0.0192;-0.1245;9.8258;-0.0156;-0.1571;9.8053;0.0058;0.0489;0.2464;0.0;0.0;0.0;173.0;-13.31;7.75;-18.12;59.38;0.92;0.1;5.0;17.876;;;;NaN;;;;0 / 0;2864;2022-11-16 22:12:45:700
-0.0192;-0.1245;9.8258;-0.0156;-0.1571;9.8053;0.0258;0.0187;0.266;0.0;0.0;0.0;173.0;-13.31;7.75;-18.12;59.38;0.92;0.1;5.0;17.876;;;;NaN;;;;0 / 0;2874;2022-11-16 22:12:45:710
-0.0192;-0.1245;9.8258;-0.016;-0.1564;9.8053;0.0258;0.0187;0.266;0.0;0.0;0.0;173.0;-13.31;7.75;-18.12;59.38;0.92;0.1;5.0;17.876;;;;NaN;;;;0 / 0;2885;2022-11-16 22:12:45:721
-0.0192;-0.1245;9.8258;-0.016;-0.1564;9.8053;0.0258;0.0187;0.266;0.0;0.0;0.0;173.0;-13.56;8.13;-17.69;59.38;0.92;0.1;5.0;17.876;;;;NaN;;;;0 / 0;2894;2022-11-16 22:12:45:730
-0.0192;-0.1245;9.8258;-0.016;-0.1564;9.8053;0.0258;0.0187;0.266;0.0;0.0;0.0;173.0;-13.56;8.13;-17.69;59.38;0.92;0.1;5.0;17.876;;;;NaN;;;;0 / 0;2904;2022-11-16 22:12:45:740
0.0;-0.2203;9.7971;-0.016;-0.1564;9.8053;0.0258;0.0187;0.266;0.0;0.0;0.0;173.0;-13.56;8.13;-17.69;59.38;0.92;0.1;5.0;17.876;;;;NaN;;;;0 / 0;2914;2022-11-16 22:12:45:750
0.0;-0.2203;9.7971;-0.016;-0.1564;9.8053;0.022;0.0021;0.2758;0.0;0.0;0.0;173.0;-13.56;8.13;-17.69;59.38;0.92;0.1;5.0;17.876;;;;NaN;;;;0 / 0;2925;2022-11-16 22:12:45:761
0.0;-0.2203;9.7971;-0.016;-0.1564;9.8053;0.022;0.0021;0.2758;0.0;0.0;0.0;173.0;-13.56;8.13;-17.69;59.38;0.92;0.1;5.0;17.876;;;;NaN;;;;0 / 0;2935;2022-11-16 22:12:45:771
0.0;-0.2203;9.7971;-0.0114;-0.1606;9.8053;0.022;0.0021;0.2758;0.0;0.0;0.0;173.0;-13.56;8.13;-17.69;59.38;0.92;0.1;5.0;17.876;;;;NaN;;;;0 / 0;2944;2022-11-16 22:12:45:780
0.0;-0.2203;9.7971;-0.0114;-0.1606;9.8053;0.022;0.0021;0.2758;0.0;0.0;0.0;173.0;-13.0;8.5;-18.37;56.24;0.94;0.07;5.0;17.876;;;;NaN;;;;0 / 0;2955;2022-11-16 22:12:45:791
0.0;-0.2203;9.7971;-0.0114;-0.1606;9.8053;0.022;0.0021;0.2758;0.0;0.0;0.0;173.0;-13.0;8.5;-18.37;56.24;0.94;0.07;5.0;17.876;;;;NaN;;;;0 / 0;2964;2022-11-16 22:12:45:800
-0.0096;-0.1437;9.7971;-0.0114;-0.1606;9.8053;0.022;0.0021;0.2758;0.0;0.0;0.0;173.0;-13.0;8.5;-18.37;56.24;0.94;0.07;5.0;17.876;;;;NaN;;;;0 / 0;2974;2022-11-16 22:12:45:810
-0.0096;-0.1437;9.7971;-0.0114;-0.1606;9.8053;0.022;0.0021;0.2758;0.0;0.0;0.0;173.0;-13.0;8.5;-18.37;56.24;0.94;0.07;5.0;17.876;;;;NaN;;;;0 / 0;2984;2022-11-16 22:12:45:820
-0.0096;-0.1437;9.7971;-0.0114;-0.1606;9.8053;0.0303;-0.0072;0.2268;0.0;0.0;0.0;173.0;-13.0;8.5;-18.37;56.24;0.94;0.07;5.0;17.876;;;;NaN;;;;0 / 0;2994;2022-11-16 22:12:45:830
-0.0096;-0.1437;9.7971;-0.0114;-0.1606;9.8053;0.0303;-0.0072;0.2268;0.0;0.0;0.0;173.0;-13.0;8.5;-18.37;56.24;0.94;0.07;5.0;17.876;;;;NaN;;;;0 / 0;3004;2022-11-16 22:12:45:840
-0.0096;-0.1437;9.7971;-0.0099;-0.1613;9.8053;0.0303;-0.0072;0.2268;0.0;0.0;0.0;173.0;-13.0;8.5;-18.37;56.24;0.94;0.07;5.0;17.876;;;;NaN;;;;0 / 0;3014;2022-11-16 22:12:45:850
-0.0096;-0.1437;9.7971;-0.0099;-0.1613;9.8053;0.0303;-0.0072;0.2268;0.0;0.0;0.0;173.0;-13.0;8.5;-18.37;56.24;0.94;0.07;5.0;17.876;;;;NaN;;;;0 / 0;3024;2022-11-16 22:12:45:860
-0.0096;-0.1437;9.7971;-0.0099;-0.1613;9.8053;0.0303;-0.0072;0.2268;0.0;0.0;0.0;173.0;-13.31;8.13;-17.94;56.24;0.94;0.07;5.0;17.876;;;;NaN;;;;0 / 0;3034;2022-11-16 22:12:45:870
0.0;-0.2203;9.8067;-0.0099;-0.1613;9.8053;0.0303;-0.0072;0.2268;0.0;0.0;0.0;173.0;-13.31;8.13;-17.94;56.24;0.94;0.07;5.0;17.876;;;;NaN;;;;0 / 0;3044;2022-11-16 22:12:45:880
0.0;-0.2203;9.8067;-0.0099;-0.1613;9.8053;0.0205;-0.0316;0.2465;0.0;0.0;0.0;173.0;-13.31;8.13;-17.94;56.24;0.94;0.07;5.0;17.876;;;;NaN;;;;0 / 0;3054;2022-11-16 22:12:45:890
0.0;-0.2203;9.8067;-0.0099;-0.1613;9.8053;0.0205;-0.0316;0.2465;0.0;0.0;0.0;173.0;-13.31;8.13;-17.94;56.24;0.94;0.07;5.0;17.876;;;;NaN;;;;0 / 0;3064;2022-11-16 22:12:45:900
0.0;-0.2203;9.8067;-0.0091;-0.1648;9.8052;0.0205;-0.0316;0.2465;0.0;0.0;0.0;173.0;-13.31;8.13;-17.94;56.24;0.94;0.07;5.0;17.876;;;;NaN;;;;0 / 0;3074;2022-11-16 22:12:45:910
0.0;-0.2203;9.8067;-0.0091;-0.1648;9.8052;0.0205;-0.0316;0.2465;0.0;0.0;0.0;173.0;-13.31;8.13;-17.94;56.24;0.94;0.07;5.0;17.876;;;;NaN;;;;0 / 0;3084;2022-11-16 22:12:45:920
0.0;-0.2203;9.8067;-0.0091;-0.1648;9.8052;0.0205;-0.0316;0.2465;0.0;0.0;0.0;173.0;-13.56;7.75;-17.25;61.17;0.96;0.05;5.0;17.876;;;;NaN;;;;0 / 0;3094;2022-11-16 22:12:45:930
0.0;-0.1245;9.8258;-0.0091;-0.1648;9.8052;0.0205;-0.0316;0.2465;0.0;0.0;0.0;173.0;-13.56;7.75;-17.25;61.17;0.96;0.05;5.0;17.876;;;;NaN;;;;0 / 0;3104;2022-11-16 22:12:45:940
0.0;-0.1245;9.8258;-0.0091;-0.1648;9.8052;0.0205;-0.0316;0.2465;0.0;0.0;0.0;173.0;-13.56;7.75;-17.25;61.17;0.96;0.05;5.0;17.876;;;;NaN;;;;0 / 0;3114;2022-11-16 22:12:45:950
0.0;-0.1245;9.8258;-0.0091;-0.1648;9.8052;0.0205;-0.0316;0.2465;0.0;0.0;0.0;173.0;-13.56;7.75;-17.25;61.17;0.96;0.05;5.0;17.876;;;;NaN;;;;0 / 0;3124;2022-11-16 22:12:45:960
0.0;-0.1245;9.8258;-0.0091;-0.1648;9.8052;0.0076;0.0551;0.2171;0.0;0.0;0.0;173.0;-13.56;7.75;-17.25;61.17;0.96;0.05;5.0;17.876;;;;NaN;;;;0 / 0;3135;2022-11-16 22:12:45:971
0.0;-0.1245;9.8258;-0.0091;-0.1648;9.8052;0.0076;0.0551;0.2171;0.0;0.0;0.0;173.0;-13.56;7.75;-17.25;61.17;0.96;0.05;5.0;17.876;;;;NaN;;;;0 / 0;3145;2022-11-16 22:12:45:981
0.0;-0.1245;9.8258;-0.0076;-0.1607;9.8053;0.0076;0.0551;0.2171;0.0;0.0;0.0;173.0;-13.56;7.75;-17.25;61.17;0.96;0.05;5.0;17.876;;;;NaN;;;;0 / 0;3155;2022-11-16 22:12:45:991
0.0;-0.1245;9.8258;-0.0076;-0.1607;9.8053;0.0076;0.0551;0.2171;0.0;0.0;0.0;173.0;-13.56;7.75;-17.25;61.17;0.96;0.05;5.0;17.876;;;;NaN;;;;0 / 0;3165;2022-11-16 22:12:46:001
0.0;-0.1149;9.845;-0.0076;-0.1607;9.8053;0.0076;0.0551;0.2171;0.0;0.0;0.0;173.0;-13.75;8.13;-18.0;61.17;0.96;0.05;5.0;17.876;;;;NaN;;;;0 / 0;3174;2022-11-16 22:12:46:010
0.0;-0.1149;9.845;-0.0076;-0.1607;9.8053;0.0076;0.0551;0.2171;0.0;0.0;0.0;173.0;-13.75;8.13;-18.0;61.17;0.96;0.05;5.0;17.81;;;;NaN;;;;0 / 0;3184;2022-11-16 22:12:46:020
0.0;-0.1149;9.845;-0.0076;-0.1607;9.8053;-0.0229;-0.0723;0.2269;0.0;0.0;0.0;173.0;-13.75;8.13;-18.0;61.17;0.96;0.05;5.0;17.81;;;;NaN;;;;0 / 0;3194;2022-11-16 22:12:46:030
0.0;-0.1149;9.845;-0.0076;-0.1607;9.8053;-0.0229;-0.0723;0.2269;0.0;0.0;0.0;173.0;-13.75;8.13;-18.0;61.17;0.96;0.05;5.0;17.81;;;;NaN;;;;0 / 0;3204;2022-11-16 22:12:46:040
0.0;-0.1149;9.845;-0.0065;-0.1661;9.8052;-0.0229;-0.0723;0.2269;0.0;0.0;0.0;173.0;-13.75;8.13;-18.0;61.17;0.96;0.05;5.0;17.81;;;;NaN;;;;0 / 0;3214;2022-11-16 22:12:46:050
0.0;-0.1149;9.845;-0.0065;-0.1661;9.8052;-0.0229;-0.0723;0.2269;0.0;0.0;0.0;173.0;-13.75;8.13;-18.0;61.17;0.96;0.05;5.0;17.81;;;;NaN;;;;0 / 0;3224;2022-11-16 22:12:46:060
0.0;-0.1724;9.8258;-0.0065;-0.1661;9.8052;-0.0229;-0.0723;0.2269;0.0;0.0;0.0;173.0;-12.56;8.13;-17.19;59.35;0.97;0.04;5.0;17.81;;;;NaN;;;;0 / 0;3234;2022-11-16 22:12:46:070
0.0;-0.1724;9.8258;-0.0065;-0.1661;9.8052;-0.0229;-0.0723;0.2269;0.0;0.0;0.0;173.0;-12.56;8.13;-17.19;59.35;0.97;0.04;5.0;17.81;;;;NaN;;;;0 / 0;3244;2022-11-16 22:12:46:080
0.0;-0.1724;9.8258;-0.0065;-0.1661;9.8052;0.0159;0.0375;0.1975;0.0;0.0;0.0;173.0;-12.56;8.13;-17.19;59.35;0.97;0.04;5.0;17.81;;;;NaN;;;;0 / 0;3255;2022-11-16 22:12:46:091
0.0;-0.1724;9.8258;-0.0053;-0.1638;9.8052;0.0159;0.0375;0.1975;0.0;0.0;0.0;173.0;-12.56;8.13;-17.19;59.35;0.97;0.04;5.0;17.81;;;;NaN;;;;0 / 0;3265;2022-11-16 22:12:46:101
0.0;-0.1724;9.8258;-0.0053;-0.1638;9.8052;0.0159;0.0375;0.1975;0.0;0.0;0.0;173.0;-12.56;8.13;-17.19;59.35;0.97;0.04;5.0;17.81;;;;NaN;;;;0 / 0;3275;2022-11-16 22:12:46:111
0.0;-0.1724;9.8258;-0.0053;-0.1638;9.8052;0.0159;0.0375;0.1975;0.0;0.0;0.0;173.0;-12.56;8.13;-17.19;59.35;0.97;0.04;5.0;17.81;;;;NaN;;;;0 / 0;3284;2022-11-16 22:12:46:120
0.0;-0.1724;9.8258;-0.0053;-0.1638;9.8052;0.0159;0.0375;0.1975;0.0;0.0;0.0;173.0;-12.56;8.13;-17.19;59.35;0.97;0.04;5.0;17.81;;;;NaN;;;;0 / 0;3294;2022-11-16 22:12:46:130
-0.0192;-0.1245;9.7971;-0.0053;-0.1638;9.8052;0.0159;0.0375;0.1975;0.0;0.0;0.0;173.0;-12.56;8.13;-17.19;59.35;0.97;0.04;5.0;17.81;;;;NaN;;;;0 / 0;3304;2022-11-16 22:12:46:140
-0.0192;-0.1245;9.7971;-0.0053;-0.1638;9.8052;0.0159;0.0375;0.1975;0.0;0.0;0.0;173.0;-12.94;8.25;-18.0;59.35;0.97;0.04;5.0;17.81;;;;NaN;;;;0 / 0;3314;2022-11-16 22:12:46:150
-0.0192;-0.1245;9.7971;-0.0053;-0.1638;9.8052;0.0159;0.0375;0.1975;0.0;0.0;0.0;173.0;-12.94;8.25;-18.0;59.35;0.97;0.04;5.0;17.81;;;;NaN;;;;0 / 0;3324;2022-11-16 22:12:46:160
-0.0192;-0.1245;9.7971;-0.0061;-0.1609;9.8053;0.0159;0.0726;0.1778;0.0;0.0;0.0;173.0;-12.94;8.25;-18.0;59.35;0.97;0.04;5.0;17.81;;;;NaN;;;;0 / 0;3334;2022-11-16 22:12:46:170
-0.0192;-0.1245;9.7971;-0.0061;-0.1609;9.8053;0.0159;0.0726;0.1778;0.0;0.0;0.0;173.0;-12.94;8.25;-18.0;59.35;0.97;0.04;5.0;17.81;;;;NaN;;;;0 / 0;3344;2022-11-16 22:12:46:180
-0.0192;-0.1245;9.7971;-0.0061;-0.1609;9.8053;0.0159;0.0726;0.1778;0.0;0.0;0.0;173.0;-12.94;8.25;-18.0;59.35;0.97;0.04;5.0;17.81;;;;NaN;;;;0 / 0;3354;2022-11-16 22:12:46:190
-0.0096;-0.1724;9.8928;-0.0061;-0.1609;9.8053;0.0159;0.0726;0.1778;0.0;0.0;0.0;173.0;-12.94;8.25;-18.0;59.35;0.97;0.04;5.0;17.81;;;;NaN;;;;0 / 0;3364;2022-11-16 22:12:46:200
-0.0096;-0.1724;9.8928;-0.0061;-0.1609;9.8053;0.0159;0.0726;0.1778;0.0;0.0;0.0;173.0;-13.5;7.94;-18.31;59.37;0.94;0.04;5.0;17.81;;;;NaN;;;;0 / 0;3374;2022-11-16 22:12:46:210
-0.0096;-0.1724;9.8928;-0.0061;-0.1609;9.8053;0.0159;0.0726;0.1778;0.0;0.0;0.0;173.0;-13.5;7.94;-18.31;59.37;0.94;0.04;5.0;17.81;;;;NaN;;;;0 / 0;3384;2022-11-16 22:12:46:220
-0.0096;-0.1724;9.8928;-0.0049;-0.1605;9.8053;0.0159;0.0726;0.1778;0.0;0.0;0.0;173.0;-13.5;7.94;-18.31;59.37;0.94;0.04;5.0;17.81;;;;NaN;;;;0 / 0;3394;2022-11-16 22:12:46:230
-0.0096;-0.1724;9.8928;-0.0049;-0.1605;9.8053;-0.0052;-0.0257;0.2366;0.0;0.0;0.0;173.0;-13.5;7.94;-18.31;59.37;0.94;0.04;5.0;17.81;;;;NaN;;;;0 / 0;3405;2022-11-16 22:12:46:241
-0.0096;-0.1724;9.8928;-0.0049;-0.1605;9.8053;-0.0052;-0.0257;0.2366;0.0;0.0;0.0;173.0;-13.5;7.94;-18.31;59.37;0.94;0.04;5.0;17.81;;;;NaN;;;;0 / 0;3414;2022-11-16 22:12:46:250
-0.0096;-0.1724;9.8928;-0.0049;-0.1605;9.8053;-0.0052;-0.0257;0.2366;0.0;0.0;0.0;173.0;-13.5;7.94;-18.31;59.37;0.94;0.04;5.0;17.81;;;;NaN;;;;0 / 0;3424;2022-11-16 22:12:46:260
-0.0383;-0.1245;9.8067;-0.0049;-0.1605;9.8053;-0.0052;-0.0257;0.2366;0.0;0.0;0.0;173.0;-13.5;7.94;-18.31;59.37;0.94;0.04;5.0;17.81;;;;NaN;;;;0 / 0;3434;2022-11-16 22:12:46:270
-0.0383;-0.1245;9.8067;-0.0069;-0.1609;9.8053;-0.0052;-0.0257;0.2366;0.0;0.0;0.0;173.0;-13.5;7.94;-18.31;59.37;0.94;0.04;5.0;17.81;;;;NaN;;;;0 / 0;3444;2022-11-16 22:12:46:280
-0.0383;-0.1245;9.8067;-0.0069;-0.1609;9.8053;-0.0052;-0.0257;0.2366;0.0;0.0;0.0;173.0;-13.19;7.69;-17.56;59.37;0.94;0.04;5.0;17.81;;;;NaN;;;;0 / 0;3454;2022-11-16 22:12:46:290
-0.0383;-0.1245;9.8067;-0.0069;-0.1609;9.8053;-0.0052;-0.0257;0.2366;0.0;0.0;0.0;173.0;-13.19;7.69;-17.56;59.37;0.94;0.04;5.0;17.81;;;;NaN;;;;0 / 0;3464;2022-11-16 22:12:46:300
-0.0383;-0.1245;9.8067;-0.0069;-0.1609;9.8053;-0.059;0.0037;0.1484;0.0;0.0;0.0;173.0;-13.19;7.69;-17.56;59.37;0.94;0.04;5.0;17.81;;;;NaN;;;;0 / 0;3475;2022-11-16 22:12:46:311
-0.0383;-0.1245;9.8067;-0.0069;-0.1609;9.8053;-0.059;0.0037;0.1484;0.0;0.0;0.0;173.0;-13.19;7.69;-17.56;59.37;0.94;0.04;5.0;17.81;;;;NaN;;;;0 / 0;3484;2022-11-16 22:12:46:320
-0.0383;-0.1532;9.7971;-0.0069;-0.1609;9.8053;-0.059;0.0037;0.1484;0.0;0.0;0.0;173.0;-13.19;7.69;-17.56;59.37;0.94;0.04;5.0;17.81;;;;NaN;;;;0 / 0;3494;2022-11-16 22:12:46:330
-0.0383;-0.1532;9.7971;-0.0069;-0.1609;9.8053;-0.059;0.0037;0.1484;0.0;0.0;0.0;173.0;-13.19;7.69;-17.56;59.37;0.94;0.04;5.0;17.86;;;;NaN;;;;0 / 0;3504;2022-11-16 22:12:46:340
-0.0383;-0.1532;9.7971;-0.0084;-0.1572;9.8053;-0.059;0.0037;0.1484;0.0;0.0;0.0;173.0;-12.81;7.94;-17.94;59.36;0.92;0.05;5.0;17.86;;;;NaN;;;;0 / 0;3514;2022-11-16 22:12:46:350
-0.0383;-0.1532;9.7971;-0.0084;-0.1572;9.8053;-0.059;0.0037;0.1484;0.0;0.0;0.0;173.0;-12.81;7.94;-17.94;59.36;0.92;0.05;5.0;17.86;;;;NaN;;;;0 / 0;3525;2022-11-16 22:12:46:361
-0.0383;-0.1532;9.7971;-0.0084;-0.1572;9.8053;-0.059;0.0037;0.1484;0.0;0.0;0.0;173.0;-12.81;7.94;-17.94;59.36;0.92;0.05;5.0;17.86;;;;NaN;;;;0 / 0;3534;2022-11-16 22:12:46:370
-0.0383;-0.1532;9.7971;-0.0084;-0.1572;9.8053;-0.059;0.0037;0.1484;0.0;0.0;0.0;173.0;-12.81;7.94;-17.94;59.36;0.92;0.05;5.0;17.86;;;;NaN;;;;0 / 0;3544;2022-11-16 22:12:46:380
-0.0383;-0.1532;9.7971;-0.0084;-0.1572;9.8053;0.0167;0.0047;0.2561;0.0;0.0;0.0;173.0;-12.81;7.94;-17.94;59.36;0.92;0.05;5.0;17.86;;;;NaN;;;;0 / 0;3554;2022-11-16 22:12:46:390
-0.0287;-0.1532;9.7492;-0.0084;-0.1572;9.8053;0.0167;0.0047;0.2561;0.0;0.0;0.0;173.0;-12.81;7.94;-17.94;59.36;0.92;0.05;5.0;17.86;;;;NaN;;;;0 / 0;3564;2022-11-16 22:12:46:400
-0.0287;-0.1532;9.7492;-0.0061;-0.148;9.8055;0.0167;0.0047;0.2561;0.0;0.0;0.0;173.0;-12.81;7.94;-17.94;59.36;0.92;0.05;5.0;17.86;;;;NaN;;;;0 / 0;3574;2022-11-16 22:12:46:410
-0.0287;-0.1532;9.7492;-0.0061;-0.148;9.8055;0.0167;0.0047;0.2561;0.0;0.0;0.0;173.0;-12.81;7.94;-17.94;59.36;0.92;0.05;5.0;17.86;;;;NaN;;;;0 / 0;3584;2022-11-16 22:12:46:420
-0.0287;-0.1532;9.7492;-0.0061;-0.148;9.8055;0.0167;0.0047;0.2561;0.0;0.0;0.0;173.0;-13.5;7.75;-17.25;59.36;0.92;0.05;5.0;17.86;;;;NaN;;;;0 / 0;3594;2022-11-16 22:12:46:430
-0.0287;-0.1532;9.7492;-0.0061;-0.148;9.8055;0.0167;0.0047;0.2561;0.0;0.0;0.0;173.0;-13.5;7.75;-17.25;59.36;0.92;0.05;5.0;17.86;;;;NaN;;;;0 / 0;3604;2022-11-16 22:12:46:440
-0.0287;-0.1532;9.7492;-0.0061;-0.148;9.8055;0.0069;0.0051;0.2365;0.0;0.0;0.0;173.0;-13.5;7.75;-17.25;59.36;0.92;0.05;5.0;17.86;;;;NaN;;;;0 / 0;3614;2022-11-16 22:12:46:450
-0.0096;-0.1341;9.8067;-0.0061;-0.148;9.8055;0.0069;0.0051;0.2365;0.0;0.0;0.0;173.0;-13.5;7.75;-17.25;59.36;0.92;0.05;5.0;17.86;;;;NaN;;;;0 / 0;3624;2022-11-16 22:12:46:460
-0.0096;-0.1341;9.8067;-0.0072;-0.1533;9.8054;0.0069;0.0051;0.2365;0.0;0.0;0.0;173.0;-13.5;7.75;-17.25;59.36;0.92;0.05;5.0;17.86;;;;NaN;;;;0 / 0;3634;2022-11-16 22:12:46:470
-0.0096;-0.1341;9.8067;-0.0072;-0.1533;9.8054;0.0069;0.0051;0.2365;0.0;0.0;0.0;173.0;-13.5;7.75;-17.25;59.36;0.92;0.05;5.0;17.86;;;;NaN;;;;0 / 0;3644;2022-11-16 22:12:46:480
-0.0096;-0.1341;9.8067;-0.0072;-0.1533;9.8054;0.0069;0.0051;0.2365;0.0;0.0;0.0;173.0;-13.5;7.75;-17.25;59.36;0.92;0.05;5.0;17.86;;;;NaN;;;;0 / 0;3654;2022-11-16 22:12:46:490
-0.0096;-0.1341;9.8067;-0.0072;-0.1533;9.8054;0.0069;0.0051;0.2365;0.0;0.0;0.0;173.0;-12.87;8.31;-17.81;59.33;0.9;0.04;5.0;17.86;;;;NaN;;;;0 / 0;3664;2022-11-16 22:12:46:500
-0.0096;-0.1341;9.8067;-0.0072;-0.1533;9.8054;-0.0205;0.0078;0.2561;0.0;0.0;0.0;173.0;-12.87;8.31;-17.81;59.33;0.9;0.04;5.0;17.86;;;;NaN;;;;0 / 0;3675;2022-11-16 22:12:46:511
-0.0096;-0.1341;9.8067;-0.0072;-0.1533;9.8054;-0.0205;0.0078;0.2561;0.0;0.0;0.0;173.0;-12.87;8.31;-17.81;59.33;0.9;0.04;5.0;17.86;;;;NaN;;;;0 / 0;3684;2022-11-16 22:12:46:520
-0.0479;-0.1341;9.8067;-0.0076;-0.1499;9.8055;-0.0205;0.0078;0.2561;0.0;0.0;0.0;173.0;-12.87;8.31;-17.81;59.33;0.9;0.04;5.0;17.86;;;;NaN;;;;0 / 0;3694;2022-11-16 22:12:46:530
-0.0479;-0.1341;9.8067;-0.0076;-0.1499;9.8055;-0.0205;0.0078;0.2561;0.0;0.0;0.0;173.0;-12.87;8.31;-17.81;59.33;0.9;0.04;5.0;17.86;;;;NaN;;;;0 / 0;3704;2022-11-16 22:12:46:540
-0.0479;-0.1341;9.8067;-0.0076;-0.1499;9.8055;-0.0205;0.0078;0.2561;0.0;0.0;0.0;173.0;-12.87;8.31;-17.81;59.33;0.9;0.04;5.0;17.86;;;;NaN;;;;0 / 0;3715;2022-11-16 22:12:46:551
-0.0479;-0.1341;9.8067;-0.0076;-0.1499;9.8055;0.0182;-0.0292;0.2266;0.0;0.0;0.0;173.0;-12.87;8.31;-17.81;59.33;0.9;0.04;5.0;17.86;;;;NaN;;;;0 / 0;3725;2022-11-16 22:12:46:561
-0.0479;-0.1341;9.8067;-0.0076;-0.1499;9.8055;0.0182;-0.0292;0.2266;0.0;0.0;0.0;173.0;-12.81;7.88;-18.25;59.33;0.9;0.04;5.0;17.86;;;;NaN;;;;0 / 0;3734;2022-11-16 22:12:46:570
-0.0479;-0.1341;9.8067;-0.0076;-0.1499;9.8055;0.0182;-0.0292;0.2266;0.0;0.0;0.0;173.0;-12.81;7.88;-18.25;59.33;0.9;0.04;5.0;17.86;;;;NaN;;;;0 / 0;3744;2022-11-16 22:12:46:580
-0.0287;-0.1532;9.7875;-0.0092;-0.1514;9.8054;0.0182;-0.0292;0.2266;0.0;0.0;0.0;173.0;-12.81;7.88;-18.25;59.33;0.9;0.04;5.0;17.86;;;;NaN;;;;0 / 0;3754;2022-11-16 22:12:46:590
-0.0287;-0.1532;9.7875;-0.0092;-0.1514;9.8054;0.0182;-0.0292;0.2266;0.0;0.0;0.0;173.0;-12.81;7.88;-18.25;59.33;0.9;0.04;5.0;17.86;;;;NaN;;;;0 / 0;3764;2022-11-16 22:12:46:600
-0.0287;-0.1532;9.7875;-0.0092;-0.1514;9.8054;0.0182;-0.0292;0.2266;0.0;0.0;0.0;173.0;-12.81;7.88;-18.25;59.33;0.9;0.04;5.0;17.86;;;;NaN;;;;0 / 0;3774;2022-11-16 22:12:46:610
-0.0287;-0.1532;9.7875;-0.0092;-0.1514;9.8054;0.0182;-0.0292;0.2266;0.0;0.0;0.0;173.0;-12.81;7.88;-18.25;59.33;0.9;0.04;5.0;17.86;;;;NaN;;;;0 / 0;3784;2022-11-16 22:12:46:620
-0.0287;-0.1532;9.7875;-0.0092;-0.1514;9.8054;0.017;-0.0556;0.2267;0.0;0.0;0.0;173.0;-12.81;7.88;-18.25;59.33;0.9;0.04;5.0;17.86;;;;NaN;;;;0 / 0;3794;2022-11-16 22:12:46:630
-0.0287;-0.1532;9.7875;-0.0092;-0.1514;9.8054;0.017;-0.0556;0.2267;0.0;0.0;0.0;173.0;-12.81;7.88;-18.25;59.33;0.9;0.04;5.0;17.86;;;;NaN;;;;0 / 0;3804;2022-11-16 22:12:46:640
-0.0287;-0.1532;9.7875;-0.0061;-0.1521;9.8054;0.017;-0.0556;0.2267;0.0;0.0;0.0;173.0;-13.06;8.25;-17.19;59.27;0.89;0.04;5.0;17.86;;;;NaN;;;;0 / 0;3815;2022-11-16 22:12:46:651
-0.0479;-0.1437;9.73;-0.0061;-0.1521;9.8054;0.017;-0.0556;0.2267;0.0;0.0;0.0;173.0;-13.06;8.25;-17.19;59.27;0.89;0.04;5.0;18.214;;;;NaN;;;;0 / 0;3824;2022-11-16 22:12:46:660
-0.0479;-0.1437;9.73;-0.0061;-0.1521;9.8054;0.017;-0.0556;0.2267;0.0;0.0;0.0;173.0;-13.06;8.25;-17.19;59.27;0.89;0.04;5.0;18.214;;;;NaN;;;;0 / 0;3834;2022-11-16 22:12:46:670
-0.0479;-0.1437;9.73;-0.0061;-0.1521;9.8054;-0.0104;0.036;0.2169;0.0;0.0;0.0;173.0;-13.06;8.25;-17.19;59.27;0.89;0.04;5.0;18.214;;;;NaN;;;;0 / 0;3845;2022-11-16 22:12:46:681
-0.0479;-0.1437;9.73;-0.0061;-0.1521;9.8054;-0.0104;0.036;0.2169;0.0;0.0;0.0;173.0;-13.06;8.25;-17.19;59.27;0.89;0.04;5.0;18.214;;;;NaN;;;;0 / 0;3854;2022-11-16 22:12:46:690
-0.0479;-0.1437;9.73;-0.0096;-0.1533;9.8054;-0.0104;0.036;0.2169;0.0;0.0;0.0;173.0;-13.06;8.25;-17.19;59.27;0.89;0.04;5.0;18.214;;;;NaN;;;;0 / 0;3864;2022-11-16 22:12:46:700
-0.0479;-0.1437;9.73;-0.0096;-0.1533;9.8054;-0.0104;0.036;0.2169;0.0;0.0;0.0;173.0;-13.56;8.06;-17.94;59.27;0.89;0.04;5.0;18.214;;;;NaN;;;;0 / 0;3874;2022-11-16 22:12:46:710
0.0;-0.2203;9.8258;-0.0096;-0.1533;9.8054;-0.0104;0.036;0.2169;0.0;0.0;0.0;173.0;-13.56;8.06;-17.94;59.27;0.89;0.04;5.0;18.214;;;;NaN;;;;0 / 0;3884;2022-11-16 22:12:46:720
0.0;-0.2203;9.8258;-0.0096;-0.1533;9.8054;-0.0104;0.036;0.2169;0.0;0.0;0.0;173.0;-13.56;8.06;-17.94;59.27;0.89;0.04;5.0;18.214;;;;NaN;;;;0 / 0;3894;2022-11-16 22:12:46:730
0.0;-0.2203;9.8258;-0.0096;-0.1533;9.8054;-0.0104;0.036;0.2169;0.0;0.0;0.0;173.0;-13.56;8.06;-17.94;59.27;0.89;0.04;5.0;18.214;;;;NaN;;;;0 / 0;3905;2022-11-16 22:12:46:741
0.0;-0.2203;9.8258;-0.0096;-0.1533;9.8054;0.0088;-0.0393;0.2464;0.0;0.0;0.0;173.0;-13.56;8.06;-17.94;59.27;0.89;0.04;5.0;18.214;;;;NaN;;;;0 / 0;3914;2022-11-16 22:12:46:750
0.0;-0.2203;9.8258;-0.0096;-0.1533;9.8054;0.0088;-0.0393;0.2464;0.0;0.0;0.0;173.0;-13.56;8.06;-17.94;59.27;0.89;0.04;5.0;18.214;;;;NaN;;;;0 / 0;3924;2022-11-16 22:12:46:760
0.0;-0.2203;9.8258;-0.0107;-0.1598;9.8053;0.0088;-0.0393;0.2464;0.0;0.0;0.0;173.0;-13.56;8.06;-17.94;59.27;0.89;0.04;5.0;18.214;;;;NaN;;;;0 / 0;3934;2022-11-16 22:12:46:770
0.0;-0.2203;9.8258;-0.0107;-0.1598;9.8053;0.0088;-0.0393;0.2464;0.0;0.0;0.0;173.0;-13.56;8.06;-17.94;59.27;0.89;0.04;5.0;18.214;;;;NaN;;;;0 / 0;3944;2022-11-16 22:12:46:780
0.0192;-0.1628;9.7683;-0.0107;-0.1598;9.8053;0.0088;-0.0393;0.2464;0.0;0.0;0.0;173.0;-12.75;8.06;-17.37;59.33;0.93;0.06;5.0;18.214;;;;NaN;;;;0 / 0;3954;2022-11-16 22:12:46:790
0.0192;-0.1628;9.7683;-0.0107;-0.1598;9.8053;0.0088;-0.0393;0.2464;0.0;0.0;0.0;173.0;-12.75;8.06;-17.37;59.33;0.93;0.06;5.0;18.214;;;;NaN;;;;0 / 0;3965;2022-11-16 22:12:46:801
0.0192;-0.1628;9.7683;-0.0107;-0.1598;9.8053;0.0088;-0.0393;0.2464;0.0;0.0;0.0;173.0;-12.75;8.06;-17.37;59.33;0.93;0.06;5.0;18.214;;;;NaN;;;;0 / 0;3974;2022-11-16 22:12:46:810
0.0192;-0.1628;9.7683;-0.0107;-0.1627;9.8052;0.0088;-0.0393;0.2464;0.0;0.0;0.0;173.0;-12.75;8.06;-17.37;59.33;0.93;0.06;5.0;18.214;;;;NaN;;;;0 / 0;3984;2022-11-16 22:12:46:820
0.0192;-0.1628;9.7683;-0.0088;-0.1627;9.8052;0.0088;0.0156;0.2465;0.0;0.0;0.0;173.0;-12.75;8.06;-17.37;59.33;0.93;0.06;5.0;18.214;;;;NaN;;;;0 / 0;3994;2022-11-16 22:12:46:830
0.0192;-0.1628;9.7683;-0.0088;-0.1627;9.8052;0.0088;0.0156;0.2465;0.0;0.0;0.0;173.0;-12.75;8.06;-17.37;59.33;0.93;0.06;5.0;18.214;;;;NaN;;;;0 / 0;4004;2022-11-16 22:12:46:840
-0.0192;-0.1915;9.7779;-0.0088;-0.1627;9.8052;0.0088;0.0156;0.2465;0.0;0.0;0.0;173.0;-12.75;8.06;-17.37;59.33;0.93;0.06;5.0;18.214;;;;NaN;;;;0 / 0;4015;2022-11-16 22:12:46:851
-0.0192;-0.1915;9.7779;-0.0088;-0.1627;9.8052;0.0088;0.0156;0.2465;-0.0098;-0.0049;-0.1087;173.0;-13.87;7.69;-17.5;59.33;0.93;0.06;5.0;18.214;;;;NaN;;;;0 / 0;4024;2022-11-16 22:12:46:860
-0.0192;-0.1915;9.7779;-0.0088;-0.1627;9.8052;0.0088;0.0156;0.2465;-0.0098;-0.0049;-0.1087;173.0;-13.87;7.69;-17.5;59.33;0.93;0.06;5.0;18.214;;;;NaN;;;;0 / 0;4034;2022-11-16 22:12:46:870
-0.0192;-0.1915;9.7779;-0.0088;-0.1627;9.8052;0.0088;0.0156;0.2465;-0.0098;-0.0049;-0.1087;173.0;-13.87;7.69;-17.5;59.33;0.93;0.06;5.0;18.214;;;;NaN;;;;0 / 0;4044;2022-11-16 22:12:46:880
-0.0192;-0.1915;9.7779;-0.0111;-0.1639;9.8052;-0.0084;-0.0125;0.2269;-0.0098;-0.0049;-0.1087;173.0;-13.87;7.69;-17.5;59.33;0.93;0.06;5.0;18.214;;;;NaN;;;;0 / 0;4054;2022-11-16 22:12:46:890
-0.0192;-0.1915;9.7779;-0.0111;-0.1639;9.8052;-0.0084;-0.0125;0.2269;-0.0098;-0.0049;-0.1087;173.0;-13.87;7.69;-17.5;59.33;0.93;0.06;5.0;18.214;;;;NaN;;;;0 / 0;4065;2022-11-16 22:12:46:901
-0.0192;-0.1915;9.7779;-0.0111;-0.1639;9.8052;-0.0084;-0.0125;0.2269;-0.0098;-0.0049;-0.1087;173.0;-13.87;7.69;-17.5;59.33;0.93;0.06;5.0;18.214;;;;NaN;;;;0 / 0;4074;2022-11-16 22:12:46:910
0.0192;-0.1245;9.8162;-0.0111;-0.1639;9.8052;-0.0084;-0.0125;0.2269;-0.0098;-0.0049;-0.1087;173.0;-13.87;7.69;-17.5;59.33;0.93;0.06;5.0;18.214;;;;NaN;;;;0 / 0;4084;2022-11-16 22:12:46:920
0.0192;-0.1245;9.8162;-0.0111;-0.1639;9.8052;-0.0084;-0.0125;0.2269;-0.0098;-0.0049;-0.1087;173.0;-13.87;8.13;-18.0;61.23;0.96;0.06;5.0;18.214;;;;NaN;;;;0 / 0;4095;2022-11-16 22:12:46:931
0.0192;-0.1245;9.8162;-0.0134;-0.1642;9.8052;-0.0084;-0.0125;0.2269;-0.0098;-0.0049;-0.1087;173.0;-13.87;8.13;-18.0;61.23;0.96;0.06;5.0;18.214;;;;NaN;;;;0 / 0;4104;2022-11-16 22:12:46:940
0.0192;-0.1245;9.8162;-0.0134;-0.1642;9.8052;-0.0084;-0.0125;0.2269;-0.0098;-0.0049;-0.1087;173.0;-13.87;8.13;-18.0;61.23;0.96;0.06;5.0;18.214;;;;NaN;;;;0 / 0;4114;2022-11-16 22:12:46:950
0.0192;-0.1245;9.8162;-0.0134;-0.1642;9.8052;-0.0084;-0.0125;0.2269;-0.0098;-0.0049;-0.1087;173.0;-13.87;8.13;-18.0;61.23;0.96;0.06;5.0;18.214;;;;NaN;;;;0 / 0;4124;2022-11-16 22:12:46:960
0.0192;-0.1245;9.8162;-0.0134;-0.1642;9.8052;0.013;-0.0107;0.2465;-0.0098;-0.0049;-0.1087;173.0;-13.87;8.13;-18.0;61.23;0.96;0.06;5.0;18.214;;;;NaN;;;;0 / 0;4134;2022-11-16 22:12:46:970
0.0192;-0.1245;9.8162;-0.0134;-0.1642;9.8052;0.013;-0.0107;0.2465;-0.0098;-0.0049;-0.1087;173.0;-13.87;8.13;-18.0;61.23;0.96;0.06;5.0;18.214;;;;NaN;;;;0 / 0;4144;2022-11-16 22:12:46:980
-0.0096;-0.1724;9.8641;-0.0134;-0.1642;9.8052;0.013;-0.0107;0.2465;-0.0024;-0.0024;-0.077;173.0;-13.5;7.5;-17.12;61.23;0.96;0.06;5.0;18.214;;;;NaN;;;;0 / 0;4155;2022-11-16 22:12:46:991
-0.0096;-0.1724;9.8641;-0.0134;-0.1642;9.8052;0.013;-0.0107;0.2465;-0.0024;-0.0024;-0.077;173.0;-13.5;7.5;-17.12;61.23;0.96;0.06;5.0;18.519;;;;NaN;;;;0 / 0;4164;2022-11-16 22:12:47:000
-0.0096;-0.1724;9.8641;-0.0133;-0.1665;9.8052;0.013;-0.0107;0.2465;-0.0024;-0.0024;-0.077;173.0;-13.5;7.5;-17.12;61.23;0.96;0.06;5.0;18.519;;;;NaN;;;;0 / 0;4174;2022-11-16 22:12:47:010
-0.0096;-0.1724;9.8641;-0.0133;-0.1665;9.8052;-0.0054;0.0021;0.2662;-0.0024;-0.0024;-0.077;173.0;-13.5;7.5;-17.12;61.23;0.96;0.06;5.0;18.519;;;;NaN;;;;0 / 0;4184;2022-11-16 22:12:47:020
-0.0096;-0.1724;9.8641;-0.0133;-0.1665;9.8052;-0.0054;0.0021;0.2662;-0.0024;-0.0024;-0.077;173.0;-13.5;7.5;-17.12;61.23;0.96;0.06;5.0;18.519;;;;NaN;;;;0 / 0;4195;2022-11-16 22:12:47:031
-0.0096;-0.1724;9.8641;-0.0133;-0.1665;9.8052;-0.0054;0.0021;0.2662;-0.0024;-0.0024;-0.077;173.0;-13.5;7.5;-17.12;61.23;0.96;0.06;5.0;18.519;;;;NaN;;;;0 / 0;4204;2022-11-16 22:12:47:040
-0.0479;-0.1915;9.845;-0.0133;-0.1665;9.8052;-0.0054;0.0021;0.2662;-0.0024;-0.0024;-0.077;173.0;-13.5;7.5;-17.12;61.23;0.96;0.06;5.0;18.519;;;;NaN;;;;0 / 0;4214;2022-11-16 22:12:47:050
-0.0479;-0.1915;9.845;-0.0133;-0.1665;9.8052;-0.0054;0.0021;0.2662;-0.0024;-0.0024;-0.077;173.0;-13.5;7.5;-17.12;61.23;0.96;0.06;5.0;18.519;;;;NaN;;;;0 / 0;4224;2022-11-16 22:12:47:060
-0.0479;-0.1915;9.845;-0.0122;-0.1695;9.8051;-0.0054;0.0021;0.2662;-0.0024;-0.0024;-0.077;173.0;-12.94;8.06;-16.87;59.39;0.99;0.07;5.0;18.519;;;;NaN;;;;0 / 0;4234;2022-11-16 22:12:47:070
-0.0479;-0.1915;9.845;-0.0122;-0.1695;9.8051;-0.0054;0.0021;0.2662;-0.0024;-0.0024;-0.077;173.0;-12.94;8.06;-16.87;59.39;0.99;0.07;5.0;18.519;;;;NaN;;;;0 / 0;4244;2022-11-16 22:12:47:080
-0.0479;-0.1915;9.845;-0.0122;-0.1695;9.8051;0.0118;2.0E-4;0.2171;-0.0024;-0.0024;-0.077;173.0;-12.94;8.06;-16.87;59.39;0.99;0.07;5.0;18.519;;;;NaN;;;;0 / 0;4254;2022-11-16 22:12:47:090
-0.0479;-0.1915;9.845;-0.0122;-0.1695;9.8051;0.0118;2.0E-4;0.2171;-0.0024;-0.0024;-0.077;173.0;-12.94;8.06;-16.87;59.39;0.99;0.07;5.0;18.519;;;;NaN;;;;0 / 0;4264;2022-11-16 22:12:47:100
0.0096;-0.1437;9.7588;-0.0122;-0.1695;9.8051;0.0118;2.0E-4;0.2171;-0.0024;-0.0024;-0.077;173.0;-12.94;8.06;-16.87;59.39;0.99;0.07;5.0;18.519;;;;NaN;;;;0 / 0;4274;2022-11-16 22:12:47:110
0.0096;-0.1437;9.7588;-0.0122;-0.1695;9.8051;0.0118;2.0E-4;0.2171;0.0098;-0.022;0.1087;173.0;-12.94;8.06;-16.87;59.39;0.99;0.07;5.0;18.519;;;;NaN;;;;0 / 0;4284;2022-11-16 22:12:47:120
0.0096;-0.1437;9.7588;-0.0134;-0.1677;9.8052;0.0118;2.0E-4;0.2171;0.0098;-0.022;0.1087;173.0;-12.94;8.31;-16.87;59.39;0.99;0.07;5.0;18.519;;;;NaN;;;;0 / 0;4294;2022-11-16 22:12:47:130
0.0096;-0.1437;9.7588;-0.0134;-0.1677;9.8052;0.0118;2.0E-4;0.2171;0.0098;-0.022;0.1087;173.0;-12.94;8.31;-16.87;59.39;0.99;0.07;5.0;18.519;;;;NaN;;;;0 / 0;4304;2022-11-16 22:12:47:140
0.0096;-0.1437;9.7588;-0.0134;-0.1677;9.8052;0.0118;2.0E-4;0.2171;0.0098;-0.022;0.1087;173.0;-12.94;8.31;-16.87;59.39;0.99;0.07;5.0;18.519;;;;NaN;;;;0 / 0;4315;2022-11-16 22:12:47:151
0.0096;-0.1437;9.7588;-0.0134;-0.1677;9.8052;0.0118;2.0E-4;0.2171;0.0098;-0.022;0.1087;173.0;-12.94;8.31;-16.87;59.39;0.99;0.07;5.0;18.519;;;;NaN;;;;0 / 0;4325;2022-11-16 22:12:47:161
0.0096;-0.1437;9.7588;-0.0134;-0.1677;9.8052;0.0507;0.0669;0.2171;0.0098;-0.022;0.1087;173.0;-12.94;8.31;-16.87;59.39;0.99;0.07;5.0;18.519;;;;NaN;;;;0 / 0;4334;2022-11-16 22:12:47:170
0.0;-0.1341;9.845;-0.0134;-0.1677;9.8052;0.0507;0.0669;0.2171;0.0098;-0.022;0.1087;173.0;-12.94;8.31;-16.87;59.39;0.99;0.07;5.0;18.519;;;;NaN;;;;0 / 0;4344;2022-11-16 22:12:47:180
0.0;-0.1341;9.845;-0.0122;-0.1684;9.8051;0.0507;0.0669;0.2171;0.0098;-0.022;0.1087;173.0;-12.94;8.31;-16.87;59.39;0.99;0.07;5.0;18.519;;;;NaN;;;;0 / 0;4354;2022-11-16 22:12:47:190
0.0;-0.1341;9.845;-0.0122;-0.1684;9.8051;0.0507;0.0669;0.2171;0.0098;-0.022;0.1087;173.0;-12.94;8.31;-16.87;59.39;0.99;0.07;5.0;18.519;;;;NaN;;;;0 / 0;4364;2022-11-16 22:12:47:200
0.0;-0.1341;9.845;-0.0122;-0.1684;9.8051;0.0507;0.0669;0.2171;0.0098;-0.022;0.1087;173.0;-13.69;8.06;-17.5;61.2;0.98;0.07;5.0;18.519;;;;NaN;;;;0 / 0;4375;2022-11-16 22:12:47:211
0.0;-0.1341;9.845;-0.0122;-0.1684;9.8051;0.0507;0.0669;0.2171;0.0098;-0.022;0.1087;173.0;-13.69;8.06;-17.5;61.2;0.98;0.07;5.0;18.519;;;;NaN;;;;0 / 0;4384;2022-11-16 22:12:47:220
0.0;-0.1341;9.845;-0.0122;-0.1684;9.8051;5.0E-4;0.0084;0.2563;0.0098;-0.022;0.1087;173.0;-13.69;8.06;-17.5;61.2;0.98;0.07;5.0;18.519;;;;NaN;;;;0 / 0;4394;2022-11-16 22:12:47:230
-0.0192;-0.1532;9.8737;-0.0122;-0.1684;9.8051;5.0E-4;0.0084;0.2563;0.0098;-0.022;0.1087;173.0;-13.69;8.06;-17.5;61.2;0.98;0.07;5.0;18.519;;;;NaN;;;;0 / 0;4404;2022-11-16 22:12:47:240
-0.0192;-0.1532;9.8737;-0.011;-0.1637;9.8052;5.0E-4;0.0084;0.2563;0.0061;-0.0024;0.1332;173.0;-13.69;8.06;-17.5;61.2;0.98;0.07;5.0;18.519;;;;NaN;;;;0 / 0;4414;2022-11-16 22:12:47:250
-0.0192;-0.1532;9.8737;-0.011;-0.1637;9.8052;5.0E-4;0.0084;0.2563;0.0061;-0.0024;0.1332;173.0;-13.69;8.06;-17.5;61.2;0.98;0.07;5.0;18.519;;;;NaN;;;;0 / 0;4424;2022-11-16 22:12:47:260
-0.0192;-0.1532;9.8737;-0.011;-0.1637;9.8052;5.0E-4;0.0084;0.2563;0.0061;-0.0024;0.1332;173.0;-13.69;8.06;-17.5;61.2;0.98;0.07;5.0;18.519;;;;NaN;;;;0 / 0;4434;2022-11-16 22:12:47:270
-0.0192;-0.1532;9.8737;-0.011;-0.1637;9.8052;5.0E-4;0.0084;0.2563;0.0061;-0.0024;0.1332;173.0;-13.31;8.88;-16.87;61.2;0.98;0.07;5.0;18.519;;;;NaN;;;;0 / 0;4445;2022-11-16 22:12:47:281
-0.0192;-0.1532;9.8737;-0.011;-0.1637;9.8052;-0.0194;-0.0063;0.2268;0.0061;-0.0024;0.1332;173.0;-13.31;8.88;-16.87;61.2;0.98;0.07;5.0;18.519;;;;NaN;;;;0 / 0;4454;2022-11-16 22:12:47:290
-0.0192;-0.1532;9.8737;-0.011;-0.1637;9.8052;-0.0194;-0.0063;0.2268;0.0061;-0.0024;0.1332;173.0;-13.31;8.88;-16.87;61.2;0.98;0.07;5.0;18.519;;;;NaN;;;;0 / 0;4464;2022-11-16 22:12:47:300
-0.0192;-0.1341;9.7683;-0.0103;-0.1584;9.8053;-0.0194;-0.0063;0.2268;0.0061;-0.0024;0.1332;173.0;-13.31;8.88;-16.87;61.2;0.98;0.07;5.0;18.519;;;;NaN;;;;0 / 0;4474;2022-11-16 22:12:47:310
-0.0192;-0.1341;9.7683;-0.0103;-0.1584;9.8053;-0.0194;-0.0063;0.2268;0.0061;-0.0024;0.1332;173.0;-13.31;8.88;-16.87;61.2;0.98;0.07;5.0;18.49;;;;NaN;;;;0 / 0;4484;2022-11-16 22:12:47:320
-0.0192;-0.1341;9.7683;-0.0103;-0.1584;9.8053;-0.0194;-0.0063;0.2268;0.0061;-0.0024;0.1332;173.0;-13.31;8.88;-16.87;61.2;0.98;0.07;5.0;18.49;;;;NaN;;;;0 / 0;4494;2022-11-16 22:12:47:330
-0.0192;-0.1341;9.7683;-0.0103;-0.1584;9.8053;-0.0194;-0.0063;0.2268;0.0061;-0.0024;0.1332;173.0;-13.31;8.88;-16.87;61.2;0.98;0.07;5.0;18.49;;;;NaN;;;;0 / 0;4504;2022-11-16 22:12:47:340
-0.0192;-0.1341;9.7683;-0.0103;-0.1584;9.8053;-0.0084;0.0502;0.2366;0.0061;-0.0024;0.1332;173.0;-13.37;8.38;-16.94;59.32;0.93;0.06;5.0;18.49;;;;NaN;;;;0 / 0;4514;2022-11-16 22:12:47:350
-0.0192;-0.1341;9.7683;-0.0103;-0.1584;9.8053;-0.0084;0.0502;0.2366;0.0061;-0.0024;0.1332;173.0;-13.37;8.38;-16.94;59.32;0.93;0.06;5.0;18.49;;;;NaN;;;;0 / 0;4524;2022-11-16 22:12:47:360
-0.0096;-0.1245;9.8354;-0.0103;-0.1584;9.8053;-0.0084;0.0502;0.2366;0.0061;-0.0024;0.1332;173.0;-13.37;8.38;-16.94;59.32;0.93;0.06;5.0;18.49;;;;NaN;;;;0 / 0;4534;2022-11-16 22:12:47:370
-0.0096;-0.1245;9.8354;-0.0103;-0.1584;9.8053;-0.0084;0.0502;0.2366;0.0;0.0;0.0;173.0;-13.37;8.38;-16.94;59.32;0.93;0.06;5.0;18.49;;;;NaN;;;;0 / 0;4544;2022-11-16 22:12:47:380
-0.0096;-0.1245;9.8354;-0.0103;-0.1584;9.8053;-0.0084;0.0502;0.2366;0.0;0.0;0.0;173.0;-13.37;8.38;-16.94;59.32;0.93;0.06;5.0;18.49;;;;NaN;;;;0 / 0;4554;2022-11-16 22:12:47:390
-0.0096;-0.1245;9.8354;-0.0103;-0.1584;9.8053;-0.0084;0.0502;0.2366;0.0;0.0;0.0;173.0;-13.37;8.38;-16.94;59.32;0.93;0.06;5.0;18.49;;;;NaN;;;;0 / 0;4564;2022-11-16 22:12:47:400
-0.0096;-0.1245;9.8354;-0.0103;-0.1584;9.8053;-0.0839;-0.0172;0.2366;0.0;0.0;0.0;173.0;-13.31;7.75;-17.81;59.32;0.93;0.06;5.0;18.49;;;;NaN;;;;0 / 0;4574;2022-11-16 22:12:47:410
-0.0096;-0.1245;9.8354;-0.0103;-0.1584;9.8053;-0.0839;-0.0172;0.2366;0.0;0.0;0.0;173.0;-13.31;7.75;-17.81;59.32;0.93;0.06;5.0;18.49;;;;NaN;;;;0 / 0;4584;2022-11-16 22:12:47:420
-0.0096;-0.1245;9.8354;-0.0103;-0.1584;9.8053;-0.0839;-0.0172;0.2366;0.0;0.0;0.0;173.0;-13.31;7.75;-17.81;59.32;0.93;0.06;5.0;18.49;;;;NaN;;;;0 / 0;4594;2022-11-16 22:12:47:430
-0.0575;-0.1628;9.7205;-0.0137;-0.1607;9.8053;-0.0839;-0.0172;0.2366;0.0;0.0;0.0;173.0;-13.31;7.75;-17.81;59.32;0.93;0.06;5.0;18.49;;;;NaN;;;;0 / 0;4605;2022-11-16 22:12:47:441
-0.0575;-0.1628;9.7205;-0.0137;-0.1607;9.8053;-0.0839;-0.0172;0.2366;0.0;0.0;0.0;173.0;-13.31;7.75;-17.81;59.32;0.93;0.06;5.0;18.49;;;;NaN;;;;0 / 0;4614;2022-11-16 22:12:47:450
-0.0575;-0.1628;9.7205;-0.0137;-0.1607;9.8053;-0.0839;-0.0172;0.2366;0.0;0.0;0.0;173.0;-13.31;7.75;-17.81;59.32;0.93;0.06;5.0;18.49;;;;NaN;;;;0 / 0;4624;2022-11-16 22:12:47:460
-0.0575;-0.1628;9.7205;-0.0137;-0.1607;9.8053;0.0043;-0.0534;0.2759;0.0;0.0;0.0;173.0;-13.31;7.75;-17.81;59.32;0.93;0.06;5.0;18.49;;;;NaN;;;;0 / 0;4635;2022-11-16 22:12:47:471
-0.0575;-0.1628;9.7205;-0.0137;-0.1607;9.8053;0.0043;-0.0534;0.2759;0.0;0.0;0.0;173.0;-13.31;7.75;-17.81;59.32;0.93;0.06;5.0;18.49;;;;NaN;;;;0 / 0;4645;2022-11-16 22:12:47:481
-0.0575;-0.1628;9.7205;-0.0137;-0.1607;9.8053;0.0043;-0.0534;0.2759;0.0;0.0;0.0;173.0;-12.75;7.88;-17.06;59.34;0.94;0.08;5.0;18.49;;;;NaN;;;;0 / 0;4654;2022-11-16 22:12:47:490
-0.0192;-0.1437;9.7971;-0.0137;-0.1607;9.8053;0.0043;-0.0534;0.2759;0.0;0.0;0.0;173.0;-12.75;7.88;-17.06;59.34;0.94;0.08;5.0;18.49;;;;NaN;;;;0 / 0;4664;2022-11-16 22:12:47:500
-0.0192;-0.1437;9.7971;-0.0137;-0.1614;9.8053;0.0043;-0.0534;0.2759;0.0049;0.0;-0.1087;173.0;-12.75;7.88;-17.06;59.34;0.94;0.08;5.0;18.49;;;;NaN;;;;0 / 0;4674;2022-11-16 22:12:47:510
-0.0192;-0.1437;9.7971;-0.0137;-0.1614;9.8053;0.0043;-0.0534;0.2759;0.0049;0.0;-0.1087;173.0;-12.75;7.88;-17.06;59.34;0.94;0.08;5.0;18.49;;;;NaN;;;;0 / 0;4684;2022-11-16 22:12:47:520
-0.0192;-0.1437;9.7971;-0.0137;-0.1614;9.8053;0.013;0.0324;0.2464;0.0049;0.0;-0.1087;173.0;-12.75;7.88;-17.06;59.34;0.94;0.08;5.0;18.49;;;;NaN;;;;0 / 0;4694;2022-11-16 22:12:47:530
-0.0192;-0.1437;9.7971;-0.0137;-0.1614;9.8053;0.013;0.0324;0.2464;0.0049;0.0;-0.1087;173.0;-12.75;7.88;-17.06;59.34;0.94;0.08;5.0;18.49;;;;NaN;;;;0 / 0;4704;2022-11-16 22:12:47:540
-0.0192;-0.1437;9.7971;-0.0137;-0.1614;9.8053;0.013;0.0324;0.2464;0.0049;0.0;-0.1087;173.0;-12.94;7.69;-17.56;59.34;0.94;0.08;5.0;18.49;;;;NaN;;;;0 / 0;4714;2022-11-16 22:12:47:550
-0.0192;-0.1437;9.7971;-0.0153;-0.1588;9.8053;0.013;0.0324;0.2464;0.0049;0.0;-0.1087;173.0;-12.94;7.69;-17.56;59.34;0.94;0.08;5.0;18.49;;;;NaN;;;;0 / 0;4725;2022-11-16 22:12:47:561
-0.0766;-0.182;9.8067;-0.0153;-0.1588;9.8053;0.013;0.0324;0.2464;0.0049;0.0;-0.1087;173.0;-12.94;7.69;-17.56;59.34;0.94;0.08;5.0;18.49;;;;NaN;;;;0 / 0;4734;2022-11-16 22:12:47:570
-0.0766;-0.182;9.8067;-0.0153;-0.1588;9.8053;0.013;0.0324;0.2464;0.0049;0.0;-0.1087;173.0;-12.94;7.69;-17.56;59.34;0.94;0.08;5.0;18.49;;;;NaN;;;;0 / 0;4744;2022-11-16 22:12:47:580
-0.0766;-0.182;9.8067;-0.0153;-0.1588;9.8053;0.013;0.0324;0.2464;0.0049;0.0;-0.1087;173.0;-12.94;7.69;-17.56;59.34;0.94;0.08;5.0;18.49;;;;NaN;;;;0 / 0;4754;2022-11-16 22:12:47:590
-0.0766;-0.182;9.8067;-0.0153;-0.1588;9.8053;0.013;0.0324;0.2464;0.0049;0.0;-0.1087;173.0;-12.94;7.69;-17.56;59.34;0.94;0.08;5.0;18.49;;;;NaN;;;;0 / 0;4764;2022-11-16 22:12:47:600
-0.0766;-0.182;9.8067;-0.0153;-0.1588;9.8053;0.0153;0.009;0.2758;0.0049;0.0;-0.1087;173.0;-12.94;7.69;-17.56;59.34;0.94;0.08;5.0;18.49;;;;NaN;;;;0 / 0;4774;2022-11-16 22:12:47:610
-0.0766;-0.182;9.8067;-0.0153;-0.1588;9.8053;0.0153;0.009;0.2758;0.0049;0.0;-0.1087;173.0;-12.94;7.69;-17.56;59.34;0.94;0.08;5.0;18.49;;;;NaN;;;;0 / 0;4784;2022-11-16 22:12:47:620
0.0096;-0.1628;9.7971;-0.016;-0.1546;9.8054;0.0153;0.009;0.2758;0.0049;0.0;-0.1087;173.0;-13.5;7.69;-16.69;59.31;0.9;0.09;5.0;18.49;;;;NaN;;;;0 / 0;4794;2022-11-16 22:12:47:630
0.0096;-0.1628;9.7971;-0.016;-0.1546;9.8054;0.0153;0.009;0.2758;0.0;0.0;-0.1087;173.0;-13.5;7.69;-16.69;59.31;0.9;0.09;5.0;18.49;;;;NaN;;;;0 / 0;4804;2022-11-16 22:12:47:640
0.0096;-0.1628;9.7971;-0.016;-0.1546;9.8054;0.0153;0.009;0.2758;0.0;0.0;-0.1087;173.0;-13.5;7.69;-16.69;59.31;0.9;0.09;5.0;18.137;;;;NaN;;;;0 / 0;4814;2022-11-16 22:12:47:650
0.0096;-0.1628;9.7971;-0.016;-0.1546;9.8054;0.0153;0.009;0.2758;0.0;0.0;-0.1087;173.0;-13.5;7.69;-16.69;59.31;0.9;0.09;5.0;18.137;;;;NaN;;;;0 / 0;4824;2022-11-16 22:12:47:660
0.0096;-0.1628;9.7971;-0.016;-0.1546;9.8054;-0.0502;-0.0203;0.2366;0.0;0.0;-0.1087;173.0;-13.5;7.69;-16.69;59.31;0.9;0.09;5.0;18.137;;;;NaN;;;;0 / 0;4835;2022-11-16 22:12:47:671
0.0096;-0.1628;9.7971;-0.0179;-0.1534;9.8054;-0.0502;-0.0203;0.2366;0.0;0.0;-0.1087;173.0;-13.5;7.69;-16.69;59.31;0.9;0.09;5.0;18.137;;;;NaN;;;;0 / 0;4844;2022-11-16 22:12:47:680
0.0096;-0.1628;9.7971;-0.0179;-0.1534;9.8054;-0.0502;-0.0203;0.2366;0.0;0.0;-0.1087;173.0;-13.69;8.06;-17.19;59.31;0.9;0.09;5.0;18.137;;;;NaN;;;;0 / 0;4854;2022-11-16 22:12:47:690
-0.0383;-0.1628;9.8354;-0.0179;-0.1534;9.8054;-0.0502;-0.0203;0.2366;0.0;0.0;-0.1087;173.0;-13.69;8.06;-17.19;59.31;0.9;0.09;5.0;18.137;;;;NaN;;;;0 / 0;4864;2022-11-16 22:12:47:700
-0.0383;-0.1628;9.8354;-0.0179;-0.1534;9.8054;-0.0502;-0.0203;0.2366;0.0;0.0;-0.1087;173.0;-13.69;8.06;-17.19;59.31;0.9;0.09;5.0;18.137;;;;NaN;;;;0 / 0;4874;2022-11-16 22:12:47:710
-0.0383;-0.1628;9.8354;-0.0179;-0.1534;9.8054;0.0308;-0.0297;0.217;0.0;0.0;-0.1087;173.0;-13.69;8.06;-17.19;59.31;0.9;0.09;5.0;18.137;;;;NaN;;;;0 / 0;4884;2022-11-16 22:12:47:720
-0.0383;-0.1628;9.8354;-0.0179;-0.1534;9.8054;0.0308;-0.0297;0.217;0.0;0.0;-0.1087;173.0;-13.69;8.06;-17.19;59.31;0.9;0.09;5.0;18.137;;;;NaN;;;;0 / 0;4894;2022-11-16 22:12:47:730
-0.0383;-0.1628;9.8354;-0.0202;-0.1581;9.8053;0.0308;-0.0297;0.217;0.0;0.0;-0.1087;173.0;-13.69;8.06;-17.19;59.31;0.9;0.09;5.0;18.137;;;;NaN;;;;0 / 0;4904;2022-11-16 22:12:47:740
-0.0383;-0.1628;9.8354;-0.0202;-0.1581;9.8053;0.0308;-0.0297;0.217;0.0;0.0;-0.1087;173.0;-13.69;8.06;-17.19;59.31;0.9;0.09;5.0;18.137;;;;NaN;;;;0 / 0;4914;2022-11-16 22:12:47:750
-0.0575;-0.182;9.8258;-0.0202;-0.1581;9.8053;0.0308;-0.0297;0.217;0.0;0.0;-0.1087;173.0;-13.69;8.06;-17.19;59.31;0.9;0.09;5.0;18.137;;;;NaN;;;;0 / 0;4924;2022-11-16 22:12:47:760
-0.0575;-0.182;9.8258;-0.0202;-0.1581;9.8053;0.0308;-0.0297;0.217;-0.0122;0.0;-0.1319;173.0;-13.37;7.69;-17.69;59.4;0.92;0.12;5.0;18.137;;;;NaN;;;;0 / 0;4934;2022-11-16 22:12:47:770
-0.0575;-0.182;9.8258;-0.0202;-0.1581;9.8053;0.0308;-0.0297;0.217;-0.0122;0.0;-0.1319;173.0;-13.37;7.69;-17.69;59.4;0.92;0.12;5.0;18.137;;;;NaN;;;;0 / 0;4944;2022-11-16 22:12:47:780
-0.0575;-0.182;9.8258;-0.0202;-0.1581;9.8053;-0.0174;-0.0172;0.2759;-0.0122;0.0;-0.1319;173.0;-13.37;7.69;-17.69;59.4;0.92;0.12;5.0;18.137;;;;NaN;;;;0 / 0;4954;2022-11-16 22:12:47:790
-0.0575;-0.182;9.8258;-0.0225;-0.16;9.8053;-0.0174;-0.0172;0.2759;-0.0122;0.0;-0.1319;173.0;-13.37;7.69;-17.69;59.4;0.92;0.12;5.0;18.137;;;;NaN;;;;0 / 0;4965;2022-11-16 22:12:47:801
-0.0575;-0.182;9.8258;-0.0225;-0.16;9.8053;-0.0174;-0.0172;0.2759;-0.0122;0.0;-0.1319;173.0;-13.37;7.69;-17.69;59.4;0.92;0.12;5.0;18.137;;;;NaN;;;;0 / 0;4974;2022-11-16 22:12:47:810
-0.0575;-0.182;9.8258;-0.0225;-0.16;9.8053;-0.0174;-0.0172;0.2759;-0.0122;0.0;-0.1319;173.0;-13.37;7.69;-17.69;59.4;0.92;0.12;5.0;18.137;;;;NaN;;;;0 / 0;4984;2022-11-16 22:12:47:820
-0.0192;-0.1149;9.7492;-0.0225;-0.16;9.8053;-0.0174;-0.0172;0.2759;-0.0122;0.0;-0.1319;173.0;-13.37;7.69;-17.69;59.4;0.92;0.12;5.0;18.137;;;;NaN;;;;0 / 0;4994;2022-11-16 22:12:47:830
-0.0192;-0.1149;9.7492;-0.0225;-0.16;9.8053;-0.0174;-0.0172;0.2759;-0.0122;0.0;-0.1319;173.0;-13.31;7.94;-17.19;59.4;0.92;0.12;5.0;18.137;;;;NaN;;;;0 / 0;5004;2022-11-16 22:12:47:840
-0.0192;-0.1149;9.7492;-0.0225;-0.16;9.8053;-0.0174;-0.0172;0.2759;-0.0122;0.0;-0.1319;173.0;-13.31;7.94;-17.19;59.4;0.92;0.12;5.0;18.137;;;;NaN;;;;0 / 0;5014;2022-11-16 22:12:47:850
-0.0192;-0.1149;9.7492;-0.0256;-0.1638;9.8052;-0.0174;-0.0172;0.2759;-0.0122;0.0;-0.1319;173.0;-13.31;7.94;-17.19;59.4;0.92;0.12;5.0;18.137;;;;NaN;;;;0 / 0;5024;2022-11-16 22:12:47:860
-0.0192;-0.1149;9.7492;-0.0256;-0.1638;9.8052;0.0158;-0.0224;0.2269;-0.0122;0.0;-0.1319;173.0;-13.31;7.94;-17.19;59.4;0.92;0.12;5.0;18.137;;;;NaN;;;;0 / 0;5035;2022-11-16 22:12:47:871
-0.0192;-0.1149;9.7492;-0.0256;-0.1638;9.8052;0.0158;-0.0224;0.2269;-0.0122;0.0;-0.1319;173.0;-13.31;7.94;-17.19;59.4;0.92;0.12;5.0;18.137;;;;NaN;;;;0 / 0;5044;2022-11-16 22:12:47:880
-0.0287;-0.2107;9.8258;-0.0256;-0.1638;9.8052;0.0158;-0.0224;0.2269;-0.0122;0.0;-0.1319;173.0;-13.31;7.94;-17.19;59.4;0.92;0.12;5.0;18.137;;;;NaN;;;;0 / 0;5054;2022-11-16 22:12:47:890
-0.0287;-0.2107;9.8258;-0.0256;-0.1638;9.8052;0.0158;-0.0224;0.2269;0.0;0.0;0.0;173.0;-13.31;7.94;-17.19;59.4;0.92;0.12;5.0;18.137;;;;NaN;;;;0 / 0;5064;2022-11-16 22:12:47:900
-0.0287;-0.2107;9.8258;-0.0256;-0.1638;9.8052;0.0158;-0.0224;0.2269;0.0;0.0;0.0;173.0;-12.69;7.88;-16.94;59.4;0.96;0.15;5.0;18.137;;;;NaN;;;;0 / 0;5075;2022-11-16 22:12:47:911
-0.0287;-0.2107;9.8258;-0.0256;-0.1638;9.8052;0.0158;-0.0224;0.2269;0.0;0.0;0.0;173.0;-12.69;7.88;-16.94;59.4;0.96;0.15;5.0;18.137;;;;NaN;;;;0 / 0;5084;2022-11-16 22:12:47:920
-0.0287;-0.2107;9.8258;-0.0226;-0.1612;9.8052;0.0226;0.0337;0.2367;0.0;0.0;0.0;173.0;-12.69;7.88;-16.94;59.4;0.96;0.15;5.0;18.137;;;;NaN;;;;0 / 0;5094;2022-11-16 22:12:47:930
-0.0287;-0.2107;9.8258;-0.0226;-0.1612;9.8052;0.0226;0.0337;0.2367;0.0;0.0;0.0;173.0;-12.69;7.88;-16.94;59.4;0.96;0.15;5.0;18.137;;;;NaN;;;;0 / 0;5104;2022-11-16 22:12:47:940
-0.0287;-0.2107;9.8258;-0.0226;-0.1612;9.8052;0.0226;0.0337;0.2367;0.0;0.0;0.0;173.0;-12.69;7.88;-16.94;59.4;0.96;0.15;5.0;17.914;;;;NaN;;;;0 / 0;5115;2022-11-16 22:12:47:951
0.0;-0.1437;9.8641;-0.0226;-0.1612;9.8052;0.0226;0.0337;0.2367;0.0;0.0;0.0;173.0;-12.69;7.88;-16.94;59.4;0.96;0.15;5.0;17.914;;;;NaN;;;;0 / 0;5124;2022-11-16 22:12:47:960
0.0;-0.1437;9.8641;-0.0226;-0.1612;9.8052;0.0226;0.0337;0.2367;0.0;0.0;0.0;173.0;-13.5;8.13;-17.25;59.4;0.96;0.15;5.0;17.914;;;;NaN;;;;0 / 0;5134;2022-11-16 22:12:47:970
0.0;-0.1437;9.8641;-0.0226;-0.1612;9.8052;0.0226;0.0337;0.2367;0.0;0.0;0.0;173.0;-13.5;8.13;-17.25;59.4;0.96;0.15;5.0;17.914;;;;NaN;;;;0 / 0;5144;2022-11-16 22:12:47:980
0.0;-0.1437;9.8641;-0.0206;-0.1544;9.8054;0.0226;0.0337;0.2367;0.0;0.0;0.0;173.0;-13.5;8.13;-17.25;59.4;0.96;0.15;5.0;17.914;;;;NaN;;;;0 / 0;5154;2022-11-16 22:12:47:990
0.0;-0.1437;9.8641;-0.0206;-0.1544;9.8054;0.0226;0.0337;0.2367;0.0;0.0;0.0;173.0;-13.5;8.13;-17.25;59.4;0.96;0.15;5.0;17.914;;;;NaN;;;;0 / 0;5164;2022-11-16 22:12:48:000
0.0;-0.1437;9.8641;-0.0206;-0.1544;9.8054;0.0293;0.0073;0.2169;0.0;0.0;0.0;173.0;-13.5;8.13;-17.25;59.4;0.96;0.15;5.0;17.914;;;;NaN;;;;0 / 0;5174;2022-11-16 22:12:48:010
-0.0479;-0.1245;9.7971;-0.0206;-0.1544;9.8054;0.0293;0.0073;0.2169;0.0;0.0;0.0;173.0;-13.5;8.13;-17.25;59.4;0.96;0.15;5.0;17.914;;;;NaN;;;;0 / 0;5184;2022-11-16 22:12:48:020
-0.0479;-0.1245;9.7971;-0.0206;-0.1544;9.8054;0.0293;0.0073;0.2169;0.0;0.0;0.0;173.0;-13.5;8.13;-17.25;59.4;0.96;0.15;5.0;17.914;;;;NaN;;;;0 / 0;5194;2022-11-16 22:12:48:030
-0.0479;-0.1245;9.7971;-0.0206;-0.1544;9.8054;0.0293;0.0073;0.2169;0.0;0.0;0.0;173.0;-13.5;8.13;-17.25;59.4;0.96;0.15;5.0;17.914;;;;NaN;;;;0 / 0;5204;2022-11-16 22:12:48:040
-0.0479;-0.1245;9.7971;-0.0195;-0.1544;9.8054;0.0293;0.0073;0.2169;0.0;0.0;0.0;173.0;-13.75;8.06;-17.25;61.15;0.9;0.11;5.0;17.914;;;;NaN;;;;0 / 0;5214;2022-11-16 22:12:48:050
-0.0479;-0.1245;9.7971;-0.0195;-0.1544;9.8054;0.0293;0.0073;0.2169;0.0;0.0;0.0;173.0;-13.75;8.06;-17.25;61.15;0.9;0.11;5.0;17.914;;;;NaN;;;;0 / 0;5224;2022-11-16 22:12:48:060
-0.0479;-0.1245;9.7971;-0.0195;-0.1544;9.8054;-0.0381;-0.059;0.2758;0.0;0.0;0.0;173.0;-13.75;8.06;-17.25;61.15;0.9;0.11;5.0;17.914;;;;NaN;;;;0 / 0;5234;2022-11-16 22:12:48:070
-0.0479;-0.1245;9.7971;-0.0195;-0.1544;9.8054;-0.0381;-0.059;0.2758;0.0;0.0;0.0;173.0;-13.75;8.06;-17.25;61.15;0.9;0.11;5.0;17.914;;;;NaN;;;;0 / 0;5244;2022-11-16 22:12:48:080
-0.0287;-0.1532;9.7875;-0.0195;-0.1544;9.8054;-0.0381;-0.059;0.2758;0.0;0.0;0.0;173.0;-13.75;8.06;-17.25;61.15;0.9;0.11;5.0;17.914;;;;NaN;;;;0 / 0;5254;2022-11-16 22:12:48:090
-0.0287;-0.1532;9.7875;-0.0195;-0.1544;9.8054;-0.0381;-0.059;0.2758;0.0;0.0;0.0;173.0;-13.75;8.06;-17.25;61.15;0.9;0.11;5.0;17.914;;;;NaN;;;;0 / 0;5264;2022-11-16 22:12:48:100
-0.0287;-0.1532;9.7875;-0.0179;-0.1551;9.8054;-0.0381;-0.059;0.2758;0.0;0.0;0.0;173.0;-13.12;8.06;-17.56;61.15;0.9;0.11;5.0;17.914;;;;NaN;;;;0 / 0;5274;2022-11-16 22:12:48:110
-0.0287;-0.1532;9.7875;-0.0179;-0.1551;9.8054;-0.0381;-0.059;0.2758;0.0;0.0;0.0;173.0;-13.12;8.06;-17.56;61.15;0.9;0.11;5.0;17.914;;;;NaN;;;;0 / 0;5284;2022-11-16 22:12:48:120
-0.0287;-0.1532;9.7875;-0.0179;-0.1551;9.8054;-0.02;0.0182;0.2071;0.0;0.0;0.0;173.0;-13.12;8.06;-17.56;61.15;0.9;0.11;5.0;17.914;;;;NaN;;;;0 / 0;5294;2022-11-16 22:12:48:130
-0.0287;-0.1532;9.7875;-0.0179;-0.1551;9.8054;-0.02;0.0182;0.2071;0.0;0.0;0.0;173.0;-13.12;8.06;-17.56;61.15;0.9;0.11;5.0;17.914;;;;NaN;;;;0 / 0;5304;2022-11-16 22:12:48:140
0.0096;-0.1437;9.8737;-0.0179;-0.1551;9.8054;-0.02;0.0182;0.2071;0.0;0.0;0.0;173.0;-13.12;8.06;-17.56;61.15;0.9;0.11;5.0;17.914;;;;NaN;;;;0 / 0;5315;2022-11-16 22:12:48:151
0.0096;-0.1437;9.8737;-0.016;-0.1529;9.8054;-0.02;0.0182;0.2071;0.0;0.0;0.0;173.0;-13.12;8.06;-17.56;61.15;0.9;0.11;5.0;17.914;;;;NaN;;;;0 / 0;5324;2022-11-16 22:12:48:160
0.0096;-0.1437;9.8737;-0.016;-0.1529;9.8054;-0.02;0.0182;0.2071;0.0;0.0;0.0;173.0;-13.12;8.06;-17.56;61.15;0.9;0.11;5.0;17.914;;;;NaN;;;;0 / 0;5334;2022-11-16 22:12:48:170
0.0096;-0.1437;9.8737;-0.016;-0.1529;9.8054;-0.02;0.0182;0.2071;0.0;0.0;0.0;173.0;-13.12;8.06;-17.56;61.15;0.9;0.11;5.0;17.914;;;;NaN;;;;0 / 0;5344;2022-11-16 22:12:48:180
0.0096;-0.1437;9.8737;-0.016;-0.1529;9.8054;0.0149;-0.0409;0.2464;0.0;0.0;0.0;173.0;-13.94;8.38;-17.5;61.13;0.89;0.09;5.0;17.914;;;;NaN;;;;0 / 0;5354;2022-11-16 22:12:48:190
0.0096;-0.1437;9.8737;-0.016;-0.1529;9.8054;0.0149;-0.0409;0.2464;0.0;0.0;0.0;173.0;-13.94;8.38;-17.5;61.13;0.89;0.09;5.0;17.914;;;;NaN;;;;0 / 0;5364;2022-11-16 22:12:48:200
0.0096;-0.1437;9.8737;-0.016;-0.1529;9.8054;0.0149;-0.0409;0.2464;0.0;0.0;0.0;173.0;-13.94;8.38;-17.5;61.13;0.89;0.09;5.0;17.914;;;;NaN;;;;0 / 0;5374;2022-11-16 22:12:48:210
0.0;-0.0958;9.845;-0.016;-0.1529;9.8054;0.0149;-0.0409;0.2464;0.0;0.0;0.0;173.0;-13.94;8.38;-17.5;61.13;0.89;0.09;5.0;17.914;;;;NaN;;;;0 / 0;5384;2022-11-16 22:12:48:220
0.0;-0.0958;9.845;-0.0153;-0.1551;9.8054;0.0149;-0.0409;0.2464;0.0;0.0;0.0;173.0;-13.94;8.38;-17.5;61.13;0.89;0.09;5.0;17.914;;;;NaN;;;;0 / 0;5394;2022-11-16 22:12:48:230
0.0;-0.0958;9.845;-0.0153;-0.1551;9.8054;0.0149;-0.0409;0.2464;0.0;0.0;0.0;173.0;-13.94;8.38;-17.5;61.13;0.89;0.09;5.0;17.914;;;;NaN;;;;0 / 0;5404;2022-11-16 22:12:48:240
0.0;-0.0958;9.845;-0.0153;-0.1551;9.8054;0.0153;0.0061;0.2463;0.0;0.0;0.0;173.0;-13.94;8.38;-17.5;61.13;0.89;0.09;5.0;17.914;;;;NaN;;;;0 / 0;5414;2022-11-16 22:12:48:250
0.0;-0.0958;9.845;-0.0153;-0.1551;9.8054;0.0153;0.0061;0.2463;0.0;0.0;0.0;173.0;-13.69;7.56;-16.62;61.13;0.89;0.09;5.0;17.914;;;;NaN;;;;0 / 0;5424;2022-11-16 22:12:48:260
0.0;-0.0958;9.845;-0.0153;-0.1551;9.8054;0.0153;0.0061;0.2463;0.0;0.0;0.0;173.0;-13.69;7.56;-16.62;61.13;0.89;0.09;5.0;17.914;;;;NaN;;;;0 / 0;5435;2022-11-16 22:12:48:271
-0.0479;-0.1437;9.8162;-0.0153;-0.1551;9.8054;0.0153;0.0061;0.2463;0.0;0.0;0.0;173.0;-13.69;7.56;-16.62;61.13;0.89;0.09;5.0;17.914;;;;NaN;;;;0 / 0;5444;2022-11-16 22:12:48:280
-0.0479;-0.1437;9.8162;-0.013;-0.1521;9.8054;0.0153;0.0061;0.2463;0.0;0.0;0.0;173.0;-13.69;7.56;-16.62;61.13;0.89;0.09;5.0;17.914;;;;NaN;;;;0 / 0;5454;2022-11-16 22:12:48:290
-0.0479;-0.1437;9.8162;-0.013;-0.1521;9.8054;0.0153;0.0061;0.2463;0.0;0.0;0.0;173.0;-13.69;7.56;-16.62;61.13;0.89;0.09;5.0;17.914;;;;NaN;;;;0 / 0;5464;2022-11-16 22:12:48:300
-0.0479;-0.1437;9.8162;-0.013;-0.1521;9.8054;0.0118;-0.0334;0.2757;0.0;0.0;0.0;173.0;-13.69;7.56;-16.62;61.13;0.89;0.09;5.0;17.902;;;;NaN;;;;0 / 0;5474;2022-11-16 22:12:48:310
-0.0479;-0.1437;9.8162;-0.013;-0.1521;9.8054;0.0118;-0.0334;0.2757;0.0;0.0;0.0;173.0;-13.69;7.56;-16.62;61.13;0.89;0.09;5.0;17.902;;;;NaN;;;;0 / 0;5484;2022-11-16 22:12:48:320
-0.0479;-0.1437;9.8162;-0.013;-0.1521;9.8054;0.0118;-0.0334;0.2757;0.0;0.0;0.0;173.0;-13.37;7.88;-17.37;59.29;0.89;0.08;5.0;17.902;;;;NaN;;;;0 / 0;5495;2022-11-16 22:12:48:331
-0.0479;-0.1437;9.8162;-0.013;-0.1521;9.8054;0.0118;-0.0334;0.2757;0.0;0.0;0.0;173.0;-13.37;7.88;-17.37;59.29;0.89;0.08;5.0;17.902;;;;NaN;;;;0 / 0;5504;2022-11-16 22:12:48:340
-0.0192;-0.1341;9.7875;-0.0088;-0.1525;9.8054;0.0118;-0.0334;0.2757;0.0;0.0;0.0;173.0;-13.37;7.88;-17.37;59.29;0.89;0.08;5.0;17.902;;;;NaN;;;;0 / 0;5514;2022-11-16 22:12:48:350
-0.0192;-0.1341;9.7875;-0.0088;-0.1525;9.8054;0.0118;-0.0334;0.2757;0.0;0.0;0.0;173.0;-13.37;7.88;-17.37;59.29;0.89;0.08;5.0;17.902;;;;NaN;;;;0 / 0;5525;2022-11-16 22:12:48:361
-0.0192;-0.1341;9.7875;-0.0088;-0.1525;9.8054;0.0118;-0.0334;0.2757;0.0;0.0;0.0;173.0;-13.37;7.88;-17.37;59.29;0.89;0.08;5.0;17.902;;;;NaN;;;;0 / 0;5534;2022-11-16 22:12:48:370
-0.0192;-0.1341;9.7875;-0.0088;-0.1525;9.8054;0.0118;-0.0334;0.2757;0.0;0.0;0.0;173.0;-13.37;7.88;-17.37;59.29;0.89;0.08;5.0;17.902;;;;NaN;;;;0 / 0;5544;2022-11-16 22:12:48:380
-0.0192;-0.1341;9.7875;-0.0088;-0.1525;9.8054;-0.0304;-0.053;0.2561;0.0;0.0;0.0;173.0;-13.19;7.94;-16.87;59.29;0.89;0.08;5.0;17.902;;;;NaN;;;;0 / 0;5554;2022-11-16 22:12:48:390
-0.0192;-0.1341;9.7875;-0.0088;-0.1525;9.8054;-0.0304;-0.053;0.2561;0.0;0.0;0.0;173.0;-13.19;7.94;-16.87;59.29;0.89;0.08;5.0;17.902;;;;NaN;;;;0 / 0;5564;2022-11-16 22:12:48:400
-0.0575;-0.2203;9.7683;-0.0091;-0.1524;9.8054;-0.0304;-0.053;0.2561;0.0;0.0;0.0;173.0;-13.19;7.94;-16.87;59.29;0.89;0.08;5.0;17.902;;;;NaN;;;;0 / 0;5575;2022-11-16 22:12:48:411
-0.0575;-0.2203;9.7683;-0.0091;-0.1524;9.8054;-0.0304;-0.053;0.2561;0.0049;-0.0012;-0.077;173.0;-13.19;7.94;-16.87;59.29;0.89;0.08;5.0;17.902;;;;NaN;;;;0 / 0;5584;2022-11-16 22:12:48:420
-0.0575;-0.2203;9.7683;-0.0091;-0.1524;9.8054;-0.0304;-0.053;0.2561;0.0049;-0.0012;-0.077;173.0;-13.19;7.94;-16.87;59.29;0.89;0.08;5.0;17.902;;;;NaN;;;;0 / 0;5595;2022-11-16 22:12:48:431
-0.0575;-0.2203;9.7683;-0.0091;-0.1524;9.8054;-0.0304;-0.053;0.2561;0.0049;-0.0012;-0.077;173.0;-13.19;7.94;-16.87;59.29;0.89;0.08;5.0;17.902;;;;NaN;;;;0 / 0;5604;2022-11-16 22:12:48:440
-0.0575;-0.2203;9.7683;-0.0091;-0.1524;9.8054;0.0118;-0.0013;0.2267;0.0049;-0.0012;-0.077;173.0;-13.19;7.94;-16.87;59.29;0.89;0.08;5.0;17.902;;;;NaN;;;;0 / 0;5614;2022-11-16 22:12:48:450
-0.0575;-0.2203;9.7683;-0.0118;-0.157;9.8053;0.0118;-0.0013;0.2267;0.0049;-0.0012;-0.077;173.0;-13.19;7.94;-16.87;59.29;0.89;0.08;5.0;17.902;;;;NaN;;;;0 / 0;5625;2022-11-16 22:12:48:461
-0.0575;-0.2203;9.7683;-0.0118;-0.157;9.8053;0.0118;-0.0013;0.2267;0.0049;-0.0012;-0.077;173.0;-13.75;8.31;-17.25;61.14;0.92;0.07;5.0;17.902;;;;NaN;;;;0 / 0;5634;2022-11-16 22:12:48:470
0.0;-0.182;9.845;-0.0118;-0.157;9.8053;0.0118;-0.0013;0.2267;0.0049;-0.0012;-0.077;173.0;-13.75;8.31;-17.25;61.14;0.92;0.07;5.0;17.902;;;;NaN;;;;0 / 0;5644;2022-11-16 22:12:48:480
0.0;-0.182;9.845;-0.0118;-0.157;9.8053;0.0118;-0.0013;0.2267;0.0049;-0.0012;-0.077;173.0;-13.75;8.31;-17.25;61.14;0.92;0.07;5.0;17.902;;;;NaN;;;;0 / 0;5654;2022-11-16 22:12:48:490
0.0;-0.182;9.845;-0.0118;-0.157;9.8053;0.0111;0.0307;0.2464;0.0049;-0.0012;-0.077;173.0;-13.75;8.31;-17.25;61.14;0.92;0.07;5.0;17.902;;;;NaN;;;;0 / 0;5665;2022-11-16 22:12:48:501
0.0;-0.182;9.845;-0.0118;-0.157;9.8053;0.0111;0.0307;0.2464;0.0049;-0.0012;-0.077;173.0;-13.75;8.31;-17.25;61.14;0.92;0.07;5.0;17.902;;;;NaN;;;;0 / 0;5674;2022-11-16 22:12:48:510
0.0;-0.182;9.845;-0.0118;-0.157;9.8053;0.0111;0.0307;0.2464;0.0049;-0.0012;-0.077;173.0;-13.75;8.31;-17.25;61.14;0.92;0.07;5.0;17.902;;;;NaN;;;;0 / 0;5684;2022-11-16 22:12:48:520
0.0;-0.182;9.845;-0.008;-0.1609;9.8053;0.0111;0.0307;0.2464;0.0049;-0.0012;-0.077;173.0;-13.81;8.25;-17.12;61.14;0.92;0.07;5.0;17.902;;;;NaN;;;;0 / 0;5695;2022-11-16 22:12:48:531
-0.0287;-0.1053;9.8354;-0.008;-0.1609;9.8053;0.0111;0.0307;0.2464;0.0049;-0.0012;-0.077;173.0;-13.81;8.25;-17.12;61.14;0.92;0.07;5.0;17.902;;;;NaN;;;;0 / 0;5704;2022-11-16 22:12:48:540
-0.0287;-0.1053;9.8354;-0.008;-0.1609;9.8053;0.0111;0.0307;0.2464;0.0024;-0.0024;0.1087;173.0;-13.81;8.25;-17.12;61.14;0.92;0.07;5.0;17.902;;;;NaN;;;;0 / 0;5714;2022-11-16 22:12:48:550
-0.0287;-0.1053;9.8354;-0.008;-0.1609;9.8053;-0.0108;0.0374;0.266;0.0024;-0.0024;0.1087;173.0;-13.81;8.25;-17.12;61.14;0.92;0.07;5.0;17.902;;;;NaN;;;;0 / 0;5725;2022-11-16 22:12:48:561
-0.0287;-0.1053;9.8354;-0.008;-0.1609;9.8053;-0.0108;0.0374;0.266;0.0024;-0.0024;0.1087;173.0;-13.81;8.25;-17.12;61.14;0.92;0.07;5.0;17.902;;;;NaN;;;;0 / 0;5734;2022-11-16 22:12:48:570
-0.0287;-0.1053;9.8354;-0.0099;-0.1578;9.8053;-0.0108;0.0374;0.266;0.0024;-0.0024;0.1087;173.0;-13.81;8.25;-17.12;61.14;0.92;0.07;5.0;17.902;;;;NaN;;;;0 / 0;5744;2022-11-16 22:12:48:580
-0.0287;-0.1053;9.8354;-0.0099;-0.1578;9.8053;-0.0108;0.0374;0.266;0.0024;-0.0024;0.1087;173.0;-13.81;8.25;-17.12;61.14;0.92;0.07;5.0;17.902;;;;NaN;;;;0 / 0;5754;2022-11-16 22:12:48:590
-0.0287;-0.1053;9.8354;-0.0099;-0.1578;9.8053;-0.0108;0.0374;0.266;0.0024;-0.0024;0.1087;173.0;-13.81;8.25;-17.12;61.14;0.92;0.07;5.0;17.902;;;;NaN;;;;0 / 0;5764;2022-11-16 22:12:48:600
-0.0192;-0.2107;9.8067;-0.0099;-0.1578;9.8053;-0.0108;0.0374;0.266;0.0024;-0.0024;0.1087;173.0;-13.31;7.69;-17.12;59.31;0.92;0.06;5.0;17.902;;;;NaN;;;;0 / 0;5774;2022-11-16 22:12:48:610
-0.0192;-0.2107;9.8067;-0.0099;-0.1578;9.8053;-0.0194;0.0291;0.2268;0.0024;-0.0024;0.1087;173.0;-13.31;7.69;-17.12;59.31;0.92;0.06;5.0;17.659;;;;NaN;;;;0 / 0;5784;2022-11-16 22:12:48:620
-0.0192;-0.2107;9.8067;-0.0099;-0.1578;9.8053;-0.0194;0.0291;0.2268;0.0024;-0.0024;0.1087;173.0;-13.31;7.69;-17.12;59.31;0.92;0.06;5.0;17.659;;;;NaN;;;;0 / 0;5795;2022-11-16 22:12:48:631
-0.0192;-0.2107;9.8067;-0.0099;-0.1578;9.8053;-0.0194;0.0291;0.2268;0.0024;-0.0024;0.1087;173.0;-13.31;7.69;-17.12;59.31;0.92;0.06;5.0;17.659;;;;NaN;;;;0 / 0;5804;2022-11-16 22:12:48:640
-0.0192;-0.2107;9.8067;-0.0118;-0.1596;9.8053;-0.0194;0.0291;0.2268;0.0024;-0.0024;0.1087;173.0;-13.31;7.69;-17.12;59.31;0.92;0.06;5.0;17.659;;;;NaN;;;;0 / 0;5814;2022-11-16 22:12:48:650
-0.0192;-0.2107;9.8067;-0.0118;-0.1596;9.8053;-0.0194;0.0291;0.2268;0.0024;-0.0024;0.1087;173.0;-13.31;7.69;-17.12;59.31;0.92;0.06;5.0;17.659;;;;NaN;;;;0 / 0;5824;2022-11-16 22:12:48:660
0.0096;-0.1149;9.8258;-0.0118;-0.1596;9.8053;-0.0194;0.0291;0.2268;0.0024;-0.0024;0.1087;173.0;-13.19;7.69;-17.06;59.31;0.92;0.06;5.0;17.659;;;;NaN;;;;0 / 0;5834;2022-11-16 22:12:48:670
0.0096;-0.1149;9.8258;-0.0118;-0.1596;9.8053;-0.0194;0.0291;0.2268;0.0012;0.0;-0.0782;173.0;-13.19;7.69;-17.06;59.31;0.92;0.06;5.0;17.659;;;;NaN;;;;0 / 0;5844;2022-11-16 22:12:48:680
0.0096;-0.1149;9.8258;-0.0118;-0.1596;9.8053;-0.0156;-0.0187;0.2268;0.0012;0.0;-0.0782;173.0;-13.19;7.69;-17.06;59.31;0.92;0.06;5.0;17.659;;;;NaN;;;;0 / 0;5854;2022-11-16 22:12:48:690
0.0096;-0.1149;9.8258;-0.0118;-0.1585;9.8053;-0.0156;-0.0187;0.2268;0.0012;0.0;-0.0782;173.0;-13.19;7.69;-17.06;59.31;0.92;0.06;5.0;17.659;;;;NaN;;;;0 / 0;5864;2022-11-16 22:12:48:700
0.0096;-0.1149;9.8258;-0.0118;-0.1585;9.8053;-0.0156;-0.0187;0.2268;0.0012;0.0;-0.0782;173.0;-13.19;7.69;-17.06;59.31;0.92;0.06;5.0;17.659;;;;NaN;;;;0 / 0;5874;2022-11-16 22:12:48:710
0.0096;-0.1149;9.8258;-0.0118;-0.1585;9.8053;-0.0156;-0.0187;0.2268;0.0012;0.0;-0.0782;173.0;-13.19;7.69;-17.06;59.31;0.92;0.06;5.0;17.659;;;;NaN;;;;0 / 0;5884;2022-11-16 22:12:48:720
0.0096;-0.1149;9.8258;-0.0118;-0.1585;9.8053;-0.0156;-0.0187;0.2268;0.0012;0.0;-0.0782;173.0;-13.19;7.69;-17.06;59.31;0.92;0.06;5.0;17.659;;;;NaN;;;;0 / 0;5894;2022-11-16 22:12:48:730
-0.0287;-0.1245;9.8067;-0.0118;-0.1585;9.8053;-0.0156;-0.0187;0.2268;0.0012;0.0;-0.0782;173.0;-13.19;7.69;-17.06;59.31;0.92;0.06;5.0;17.659;;;;NaN;;;;0 / 0;5904;2022-11-16 22:12:48:740
-0.0287;-0.1245;9.8067;-0.0118;-0.1585;9.8053;0.0118;0.0098;0.2562;0.0012;0.0;-0.0782;173.0;-13.19;8.13;-16.94;59.32;0.93;0.07;5.0;17.659;;;;NaN;;;;0 / 0;5914;2022-11-16 22:12:48:750
-0.0287;-0.1245;9.8067;-0.0118;-0.1585;9.8053;0.0118;0.0098;0.2562;0.0012;0.0;-0.0782;173.0;-13.19;8.13;-16.94;59.32;0.93;0.07;5.0;17.659;;;;NaN;;;;0 / 0;5924;2022-11-16 22:12:48:760
-0.0287;-0.1245;9.8067;-0.0122;-0.1561;9.8053;0.0118;0.0098;0.2562;0.0012;0.0;-0.0782;173.0;-13.19;8.13;-16.94;59.32;0.93;0.07;5.0;17.659;;;;NaN;;;;0 / 0;5934;2022-11-16 22:12:48:770
-0.0287;-0.1245;9.8067;-0.0122;-0.1561;9.8053;0.0118;0.0098;0.2562;0.0012;0.0;-0.0782;173.0;-13.19;8.13;-16.94;59.32;0.93;0.07;5.0;17.659;;;;NaN;;;;0 / 0;5944;2022-11-16 22:12:48:780
-0.0287;-0.1245;9.8067;-0.0122;-0.1561;9.8053;0.0118;0.0098;0.2562;0.0012;0.0;-0.0782;173.0;-13.19;8.13;-16.94;59.32;0.93;0.07;5.0;17.659;;;;NaN;;;;0 / 0;5954;2022-11-16 22:12:48:790
-0.0096;-0.1149;9.845;-0.0122;-0.1561;9.8053;0.0118;0.0098;0.2562;0.0012;0.0;-0.0782;173.0;-13.19;8.13;-16.94;59.32;0.93;0.07;5.0;17.659;;;;NaN;;;;0 / 0;5964;2022-11-16 22:12:48:800
-0.0096;-0.1149;9.845;-0.0122;-0.1561;9.8053;0.0016;0.0361;0.2757;0.0;0.0;0.0;173.0;-13.19;8.13;-16.94;59.32;0.93;0.07;5.0;17.659;;;;NaN;;;;0 / 0;5974;2022-11-16 22:12:48:810
-0.0096;-0.1149;9.845;-0.0122;-0.1526;9.8054;0.0016;0.0361;0.2757;0.0;0.0;0.0;173.0;-13.37;7.94;-17.06;59.32;0.93;0.07;5.0;17.659;;;;NaN;;;;0 / 0;5985;2022-11-16 22:12:48:821
-0.0096;-0.1149;9.845;-0.0122;-0.1526;9.8054;0.0016;0.0361;0.2757;0.0;0.0;0.0;173.0;-13.37;7.94;-17.06;59.32;0.93;0.07;5.0;17.659;;;;NaN;;;;0 / 0;5994;2022-11-16 22:12:48:830
-0.0096;-0.1149;9.845;-0.0122;-0.1526;9.8054;0.0016;0.0361;0.2757;0.0;0.0;0.0;173.0;-13.37;7.94;-17.06;59.32;0.93;0.07;5.0;17.659;;;;NaN;;;;0 / 0;6004;2022-11-16 22:12:48:840
-0.0096;-0.1149;9.845;-0.0122;-0.1526;9.8054;0.0016;0.0361;0.2757;0.0;0.0;0.0;173.0;-13.37;7.94;-17.06;59.32;0.93;0.07;5.0;17.659;;;;NaN;;;;0 / 0;6015;2022-11-16 22:12:48:851
-0.0096;-0.1149;9.845;-0.0122;-0.1526;9.8054;0.0016;0.0361;0.2757;0.0;0.0;0.0;173.0;-13.37;7.94;-17.06;59.32;0.93;0.07;5.0;17.659;;;;NaN;;;;0 / 0;6025;2022-11-16 22:12:48:861
-0.0096;-0.1628;9.8067;-0.0122;-0.1526;9.8054;-0.0352;-0.0227;0.2758;0.0;0.0;0.0;173.0;-13.37;7.94;-17.06;59.32;0.93;0.07;5.0;17.659;;;;NaN;;;;0 / 0;6034;2022-11-16 22:12:48:870
-0.0096;-0.1628;9.8067;-0.0141;-0.1533;9.8054;-0.0352;-0.0227;0.2758;0.0;0.0;0.0;173.0;-13.37;7.94;-17.06;59.32;0.93;0.07;5.0;17.659;;;;NaN;;;;0 / 0;6044;2022-11-16 22:12:48:880
-0.0096;-0.1628;9.8067;-0.0141;-0.1533;9.8054;-0.0352;-0.0227;0.2758;0.0;0.0;0.0;173.0;-13.5;8.31;-17.06;59.3;0.9;0.08;5.0;17.659;;;;NaN;;;;0 / 0;6054;2022-11-16 22:12:48:890
-0.0096;-0.1628;9.8067;-0.0141;-0.1533;9.8054;-0.0352;-0.0227;0.2758;0.0;0.0;0.0;173.0;-13.5;8.31;-17.06;59.3;0.9;0.08;5.0;17.659;;;;NaN;;;;0 / 0;6064;2022-11-16 22:12:48:900
-0.0096;-0.1628;9.8067;-0.0141;-0.1533;9.8054;-0.0352;-0.0227;0.2758;0.0;0.0;0.0;173.0;-13.5;8.31;-17.06;59.3;0.9;0.08;5.0;17.659;;;;NaN;;;;0 / 0;6074;2022-11-16 22:12:48:910
-0.0096;-0.1628;9.8067;-0.0141;-0.1533;9.8054;-0.0352;-0.0227;0.2758;0.0;0.0;0.0;173.0;-13.5;8.31;-17.06;59.3;0.9;0.08;5.0;17.659;;;;NaN;;;;0 / 0;6084;2022-11-16 22:12:48:920
-0.0096;-0.1724;9.8067;-0.0141;-0.1533;9.8054;-0.0137;-0.0408;0.2758;0.0;0.0;0.0;173.0;-13.5;8.31;-17.06;59.3;0.9;0.08;5.0;17.659;;;;NaN;;;;0 / 0;6094;2022-11-16 22:12:48:930
-0.0096;-0.1724;9.8067;-0.0141;-0.1533;9.8054;-0.0137;-0.0408;0.2758;0.0;0.0;0.0;173.0;-13.5;8.31;-17.06;59.3;0.9;0.08;5.0;17.903;;;;NaN;;;;0 / 0;6104;2022-11-16 22:12:48:940
-0.0096;-0.1724;9.8067;-0.0168;-0.154;9.8054;-0.0137;-0.0408;0.2758;0.0;0.0;0.0;173.0;-13.12;8.13;-17.25;59.3;0.9;0.08;5.0;17.903;;;;NaN;;;;0 / 0;6114;2022-11-16 22:12:48:950
-0.0096;-0.1724;9.8067;-0.0168;-0.154;9.8054;-0.0137;-0.0408;0.2758;0.0;0.0;0.0;173.0;-13.12;8.13;-17.25;59.3;0.9;0.08;5.0;17.903;;;;NaN;;;;0 / 0;6124;2022-11-16 22:12:48:960
-0.0096;-0.1724;9.8067;-0.0168;-0.154;9.8054;-0.0137;-0.0408;0.2758;0.0;0.0;0.0;173.0;-13.12;8.13;-17.25;59.3;0.9;0.08;5.0;17.903;;;;NaN;;;;0 / 0;6134;2022-11-16 22:12:48:970
-0.0096;-0.1724;9.8067;-0.0168;-0.154;9.8054;-0.0137;-0.0408;0.2758;0.0;0.0;0.0;173.0;-13.12;8.13;-17.25;59.3;0.9;0.08;5.0;17.903;;;;NaN;;;;0 / 0;6144;2022-11-16 22:12:48:980
-0.0096;-0.1724;9.8067;-0.0168;-0.154;9.8054;0.0266;-0.0137;0.2365;0.0;0.0;0.0;173.0;-13.12;8.13;-17.25;59.3;0.9;0.08;5.0;17.903;;;;NaN;;;;0 / 0;6154;2022-11-16 22:12:48:990
0.0096;-0.1532;9.7588;-0.0168;-0.154;9.8054;0.0266;-0.0137;0.2365;0.0;0.0;0.0;173.0;-13.12;8.13;-17.25;59.3;0.9;0.08;5.0;17.903;;;;NaN;;;;0 / 0;6164;2022-11-16 22:12:49:000
0.0096;-0.1532;9.7588;-0.0172;-0.1544;9.8054;0.0266;-0.0137;0.2365;0.0;0.0;0.0;173.0;-13.12;8.13;-17.25;59.3;0.9;0.08;5.0;17.903;;;;NaN;;;;0 / 0;6175;2022-11-16 22:12:49:011
0.0096;-0.1532;9.7588;-0.0172;-0.1544;9.8054;0.0266;-0.0137;0.2365;0.0;0.0;0.0;173.0;-13.12;8.13;-17.25;59.3;0.9;0.08;5.0;17.903;;;;NaN;;;;0 / 0;6184;2022-11-16 22:12:49:020
0.0096;-0.1532;9.7588;-0.0172;-0.1544;9.8054;0.0266;-0.0137;0.2365;0.0;0.0;0.0;173.0;-13.0;8.44;-17.25;59.32;0.9;0.1;5.0;17.903;;;;NaN;;;;0 / 0;6194;2022-11-16 22:12:49:030
0.0096;-0.1532;9.7588;-0.0172;-0.1544;9.8054;-0.0299;-0.0323;0.2561;0.0;0.0;0.0;173.0;-13.0;8.44;-17.25;59.32;0.9;0.1;5.0;17.903;;;;NaN;;;;0 / 0;6205;2022-11-16 22:12:49:041
0.0096;-0.1532;9.7588;-0.0172;-0.1544;9.8054;-0.0299;-0.0323;0.2561;0.0;0.0;0.0;173.0;-13.0;8.44;-17.25;59.32;0.9;0.1;5.0;17.903;;;;NaN;;;;0 / 0;6214;2022-11-16 22:12:49:050
-0.0479;-0.1437;9.8067;-0.0172;-0.1544;9.8054;-0.0299;-0.0323;0.2561;0.0;0.0;0.0;173.0;-13.0;8.44;-17.25;59.32;0.9;0.1;5.0;17.903;;;;NaN;;;;0 / 0;6224;2022-11-16 22:12:49:060
-0.0479;-0.1437;9.8067;-0.0202;-0.1551;9.8054;-0.0299;-0.0323;0.2561;0.0;-0.0061;0.077;173.0;-13.0;8.44;-17.25;59.32;0.9;0.1;5.0;17.903;;;;NaN;;;;0 / 0;6234;2022-11-16 22:12:49:070
-0.0479;-0.1437;9.8067;-0.0202;-0.1551;9.8054;-0.0299;-0.0323;0.2561;0.0;-0.0061;0.077;173.0;-13.0;8.44;-17.25;59.32;0.9;0.1;5.0;17.903;;;;NaN;;;;0 / 0;6244;2022-11-16 22:12:49:080
-0.0479;-0.1437;9.8067;-0.0202;-0.1551;9.8054;-0.0299;-0.0323;0.2561;0.0;-0.0061;0.077;173.0;-13.12;8.25;-17.12;59.32;0.9;0.1;5.0;17.903;;;;NaN;;;;0 / 0;6254;2022-11-16 22:12:49:090
-0.0479;-0.1437;9.8067;-0.0202;-0.1551;9.8054;-0.0299;-0.0323;0.2561;0.0;-0.0061;0.077;173.0;-13.12;8.25;-17.12;59.32;0.9;0.1;5.0;17.903;;;;NaN;;;;0 / 0;6264;2022-11-16 22:12:49:100
-0.0479;-0.1437;9.8067;-0.0202;-0.1551;9.8054;-0.0174;-0.0405;0.2464;0.0;-0.0061;0.077;173.0;-13.12;8.25;-17.12;59.32;0.9;0.1;5.0;17.903;;;;NaN;;;;0 / 0;6275;2022-11-16 22:12:49:111
-0.0479;-0.1437;9.8067;-0.0202;-0.1551;9.8054;-0.0174;-0.0405;0.2464;0.0;-0.0061;0.077;173.0;-13.12;8.25;-17.12;59.32;0.9;0.1;5.0;17.903;;;;NaN;;;;0 / 0;6284;2022-11-16 22:12:49:120
-0.0383;-0.1915;9.845;-0.0217;-0.157;9.8053;-0.0174;-0.0405;0.2464;0.0;-0.0061;0.077;173.0;-13.12;8.25;-17.12;59.32;0.9;0.1;5.0;17.903;;;;NaN;;;;0 / 0;6294;2022-11-16 22:12:49:130
-0.0383;-0.1915;9.845;-0.0217;-0.157;9.8053;-0.0174;-0.0405;0.2464;0.0;-0.0061;0.077;173.0;-13.12;8.25;-17.12;59.32;0.9;0.1;5.0;17.903;;;;NaN;;;;0 / 0;6304;2022-11-16 22:12:49:140
-0.0383;-0.1915;9.845;-0.0217;-0.157;9.8053;-0.0174;-0.0405;0.2464;0.0;-0.0061;0.077;173.0;-13.12;8.25;-17.12;59.32;0.9;0.1;5.0;17.903;;;;NaN;;;;0 / 0;6314;2022-11-16 22:12:49:150
-0.0383;-0.1915;9.845;-0.0217;-0.157;9.8053;-0.0174;-0.0405;0.2464;0.0;-0.0061;0.077;173.0;-13.12;8.25;-17.12;59.32;0.9;0.1;5.0;17.903;;;;NaN;;;;0 / 0;6324;2022-11-16 22:12:49:160
-0.0383;-0.1915;9.845;-0.0217;-0.157;9.8053;0.01;0.0107;0.2072;0.0;-0.0061;0.077;173.0;-13.19;8.31;-17.06;59.35;0.92;0.13;5.0;17.903;;;;NaN;;;;0 / 0;6334;2022-11-16 22:12:49:170
-0.0383;-0.1915;9.845;-0.019;-0.1574;9.8053;0.01;0.0107;0.2072;0.0;-0.0061;0.077;173.0;-13.19;8.31;-17.06;59.35;0.92;0.13;5.0;17.903;;;;NaN;;;;0 / 0;6344;2022-11-16 22:12:49:180
-0.0383;-0.2394;9.7971;-0.019;-0.1574;9.8053;0.01;0.0107;0.2072;0.0;-0.0061;0.077;173.0;-13.19;8.31;-17.06;59.35;0.92;0.13;5.0;17.903;;;;NaN;;;;0 / 0;6355;2022-11-16 22:12:49:191
-0.0383;-0.2394;9.7971;-0.019;-0.1574;9.8053;0.01;0.0107;0.2072;-0.0086;-0.0037;0.0782;173.0;-13.19;8.31;-17.06;59.35;0.92;0.13;5.0;17.903;;;;NaN;;;;0 / 0;6364;2022-11-16 22:12:49:200
-0.0383;-0.2394;9.7971;-0.019;-0.1574;9.8053;0.01;0.0107;0.2072;-0.0086;-0.0037;0.0782;173.0;-13.19;8.31;-17.06;59.35;0.92;0.13;5.0;17.903;;;;NaN;;;;0 / 0;6375;2022-11-16 22:12:49:211
-0.0383;-0.2394;9.7971;-0.019;-0.1574;9.8053;0.01;0.0107;0.2072;-0.0086;-0.0037;0.0782;173.0;-13.19;8.31;-17.06;59.35;0.92;0.13;5.0;17.903;;;;NaN;;;;0 / 0;6384;2022-11-16 22:12:49:220
-0.0383;-0.2394;9.7971;-0.019;-0.1574;9.8053;-0.0072;-0.0571;0.2268;-0.0086;-0.0037;0.0782;173.0;-13.5;8.69;-17.56;59.35;0.92;0.13;5.0;17.903;;;;NaN;;;;0 / 0;6394;2022-11-16 22:12:49:230
-0.0383;-0.2394;9.7971;-0.0229;-0.1601;9.8053;-0.0072;-0.0571;0.2268;-0.0086;-0.0037;0.0782;173.0;-13.5;8.69;-17.56;59.35;0.92;0.13;5.0;17.903;;;;NaN;;;;0 / 0;6404;2022-11-16 22:12:49:240
-0.0383;-0.2394;9.7971;-0.0229;-0.1601;9.8053;-0.0072;-0.0571;0.2268;-0.0086;-0.0037;0.0782;173.0;-13.5;8.69;-17.56;59.35;0.92;0.13;5.0;17.903;;;;NaN;;;;0 / 0;6414;2022-11-16 22:12:49:250
0.0;-0.1915;9.8833;-0.0229;-0.1601;9.8053;-0.0072;-0.0571;0.2268;-0.0086;-0.0037;0.0782;173.0;-13.5;8.69;-17.56;59.35;0.92;0.13;5.0;17.708;;;;NaN;;;;0 / 0;6424;2022-11-16 22:12:49:260
0.0;-0.1915;9.8833;-0.0229;-0.1601;9.8053;-0.0072;-0.0571;0.2268;-0.0086;-0.0037;0.0782;173.0;-13.5;8.69;-17.56;59.35;0.92;0.13;5.0;17.708;;;;NaN;;;;0 / 0;6434;2022-11-16 22:12:49:270
0.0;-0.1915;9.8833;-0.0229;-0.1601;9.8053;-0.0072;-0.0571;0.2268;-0.0086;-0.0037;0.0782;173.0;-13.5;8.69;-17.56;59.35;0.92;0.13;5.0;17.708;;;;NaN;;;;0 / 0;6444;2022-11-16 22:12:49:280
0.0;-0.1915;9.8833;-0.0229;-0.1601;9.8053;0.0225;-0.034;0.2367;-0.0086;-0.0037;0.0782;173.0;-13.5;8.69;-17.56;59.35;0.92;0.13;5.0;17.708;;;;NaN;;;;0 / 0;6454;2022-11-16 22:12:49:290
0.0;-0.1915;9.8833;-0.0229;-0.1601;9.8053;0.0225;-0.034;0.2367;-0.0086;-0.0037;0.0782;173.0;-13.5;8.69;-17.56;59.35;0.92;0.13;5.0;17.708;;;;NaN;;;;0 / 0;6464;2022-11-16 22:12:49:300
0.0;-0.1915;9.8833;-0.0236;-0.1636;9.8052;0.0225;-0.034;0.2367;-0.0086;-0.0037;0.0782;173.0;-13.12;8.63;-16.44;56.19;0.96;0.14;5.0;17.708;;;;NaN;;;;0 / 0;6474;2022-11-16 22:12:49:310
0.0;-0.1915;9.8833;-0.0236;-0.1636;9.8052;0.0225;-0.034;0.2367;-0.0086;-0.0037;0.0782;173.0;-13.12;8.63;-16.44;56.19;0.96;0.14;5.0;17.708;;;;NaN;;;;0 / 0;6484;2022-11-16 22:12:49:320
-0.0192;-0.1437;9.8162;-0.0236;-0.1636;9.8052;0.0225;-0.034;0.2367;-0.0073;-0.0037;0.1087;173.0;-13.12;8.63;-16.44;56.19;0.96;0.14;5.0;17.708;;;;NaN;;;;0 / 0;6494;2022-11-16 22:12:49:330
-0.0192;-0.1437;9.8162;-0.0236;-0.1636;9.8052;0.0225;-0.034;0.2367;-0.0073;-0.0037;0.1087;173.0;-13.12;8.63;-16.44;56.19;0.96;0.14;5.0;17.708;;;;NaN;;;;0 / 0;6505;2022-11-16 22:12:49:341
-0.0192;-0.1437;9.8162;-0.0236;-0.1636;9.8052;0.0048;0.0436;0.2269;-0.0073;-0.0037;0.1087;173.0;-13.12;8.63;-16.44;56.19;0.96;0.14;5.0;17.708;;;;NaN;;;;0 / 0;6514;2022-11-16 22:12:49:350
-0.0192;-0.1437;9.8162;-0.0221;-0.1609;9.8053;0.0048;0.0436;0.2269;-0.0073;-0.0037;0.1087;173.0;-13.12;8.63;-16.44;56.19;0.96;0.14;5.0;17.708;;;;NaN;;;;0 / 0;6524;2022-11-16 22:12:49:360
-0.0192;-0.1437;9.8162;-0.0221;-0.1609;9.8053;0.0048;0.0436;0.2269;-0.0073;-0.0037;0.1087;173.0;-13.12;8.63;-16.44;56.19;0.96;0.14;5.0;17.708;;;;NaN;;;;0 / 0;6534;2022-11-16 22:12:49:370
-0.0192;-0.1437;9.8162;-0.0221;-0.1609;9.8053;0.0048;0.0436;0.2269;-0.0073;-0.0037;0.1087;173.0;-13.31;7.38;-17.37;56.19;0.96;0.14;5.0;17.708;;;;NaN;;;;0 / 0;6544;2022-11-16 22:12:49:380
0.0;-0.1724;9.7396;-0.0221;-0.1609;9.8053;0.0048;0.0436;0.2269;-0.0073;-0.0037;0.1087;173.0;-13.31;7.38;-17.37;56.19;0.96;0.14;5.0;17.708;;;;NaN;;;;0 / 0;6554;2022-11-16 22:12:49:390
0.0;-0.1724;9.7396;-0.0221;-0.1609;9.8053;0.0048;0.0436;0.2269;-0.0073;-0.0037;0.1087;173.0;-13.31;7.38;-17.37;56.19;0.96;0.14;5.0;17.708;;;;NaN;;;;0 / 0;6565;2022-11-16 22:12:49:401
0.0;-0.1724;9.7396;-0.0221;-0.1609;9.8053;-0.028;0.0316;0.266;-0.0073;-0.0037;0.1087;173.0;-13.31;7.38;-17.37;56.19;0.96;0.14;5.0;17.708;;;;NaN;;;;0 / 0;6574;2022-11-16 22:12:49:410
0.0;-0.1724;9.7396;-0.0221;-0.1609;9.8053;-0.028;0.0316;0.266;-0.0073;-0.0037;0.1087;173.0;-13.31;7.38;-17.37;56.19;0.96;0.14;5.0;17.708;;;;NaN;;;;0 / 0;6584;2022-11-16 22:12:49:420
0.0;-0.1724;9.7396;-0.0191;-0.1587;9.8053;-0.028;0.0316;0.266;-0.0073;-0.0037;0.1087;173.0;-13.31;7.38;-17.37;56.19;0.96;0.14;5.0;17.708;;;;NaN;;;;0 / 0;6594;2022-11-16 22:12:49:430
0.0;-0.1724;9.7396;-0.0191;-0.1587;9.8053;-0.028;0.0316;0.266;-0.0073;-0.0037;0.1087;173.0;-13.31;7.38;-17.37;56.19;0.96;0.14;5.0;17.708;;;;NaN;;;;0 / 0;6604;2022-11-16 22:12:49:440
-0.0383;-0.1437;9.7779;-0.0191;-0.1587;9.8053;-0.028;0.0316;0.266;-0.0073;-0.0037;0.1087;173.0;-14.19;7.94;-18.19;61.22;0.93;0.11;5.0;17.708;;;;NaN;;;;0 / 0;6614;2022-11-16 22:12:49:450
-0.0383;-0.1437;9.7779;-0.0191;-0.1587;9.8053;-0.028;0.0316;0.266;0.0;0.0;-0.1869;173.0;-14.19;7.94;-18.19;61.22;0.93;0.11;5.0;17.708;;;;NaN;;;;0 / 0;6624;2022-11-16 22:12:49:460
-0.0383;-0.1437;9.7779;-0.0191;-0.1587;9.8053;-0.028;0.0316;0.266;0.0;0.0;-0.1869;173.0;-14.19;7.94;-18.19;61.22;0.93;0.11;5.0;17.708;;;;NaN;;;;0 / 0;6634;2022-11-16 22:12:49:470
-0.0383;-0.1437;9.7779;-0.0191;-0.1613;9.8053;-0.028;0.0316;0.266;0.0;0.0;-0.1869;173.0;-14.19;7.94;-18.19;61.22;0.93;0.11;5.0;17.708;;;;NaN;;;;0 / 0;6644;2022-11-16 22:12:49:480
-0.0383;-0.1437;9.7779;-0.0191;-0.1613;9.8053;0.0191;-0.0053;0.2759;0.0;0.0;-0.1869;173.0;-14.19;7.94;-18.19;61.22;0.93;0.11;5.0;17.708;;;;NaN;;;;0 / 0;6654;2022-11-16 22:12:49:490
-0.0383;-0.1437;9.7779;-0.0191;-0.1613;9.8053;0.0191;-0.0053;0.2759;0.0;0.0;-0.1869;173.0;-14.19;7.94;-18.19;61.22;0.93;0.11;5.0;17.708;;;;NaN;;;;0 / 0;6664;2022-11-16 22:12:49:500
-0.0383;-0.1437;9.7779;-0.0191;-0.1613;9.8053;0.0191;-0.0053;0.2759;0.0;0.0;-0.1869;173.0;-14.75;8.13;-20.87;61.22;0.93;0.11;5.0;17.708;;;;NaN;;;;0 / 0;6674;2022-11-16 22:12:49:510
-0.0479;-0.182;9.8545;-0.0191;-0.1613;9.8053;0.0191;-0.0053;0.2759;0.0;0.0;-0.1869;173.0;-14.75;8.13;-20.87;61.22;0.93;0.11;5.0;17.708;;;;NaN;;;;0 / 0;6684;2022-11-16 22:12:49:520
-0.0479;-0.182;9.8545;-0.0191;-0.1613;9.8053;0.0191;-0.0053;0.2759;0.0;0.0;-0.1869;173.0;-14.75;8.13;-20.87;61.22;0.93;0.11;5.0;17.708;;;;NaN;;;;0 / 0;6694;2022-11-16 22:12:49:530
-0.0479;-0.182;9.8545;-0.0191;-0.1613;9.8053;0.0191;-0.0053;0.2759;0.0;0.0;-0.1869;173.0;-14.75;8.13;-20.87;61.22;0.93;0.11;5.0;17.708;;;;NaN;;;;0 / 0;6704;2022-11-16 22:12:49:540
-0.0479;-0.182;9.8545;-0.021;-0.1617;9.8052;0.0191;-0.0053;0.2759;0.0;0.0;-0.1869;173.0;-14.75;8.13;-20.87;61.22;0.93;0.11;5.0;17.708;;;;NaN;;;;0 / 0;6714;2022-11-16 22:12:49:550
-0.0479;-0.182;9.8545;-0.021;-0.1617;9.8052;0.0191;-0.0053;0.2759;0.0;0.0;-0.1869;173.0;-14.75;8.13;-20.87;61.22;0.93;0.11;5.0;17.708;;;;NaN;;;;0 / 0;6724;2022-11-16 22:12:49:560
-0.0479;-0.182;9.8545;-0.021;-0.1617;9.8052;-0.028;-0.023;0.3249;0.0;0.0;-0.1869;173.0;-14.75;8.13;-20.87;61.22;0.93;0.11;5.0;17.708;;;;NaN;;;;0 / 0;6734;2022-11-16 22:12:49:570
0.0;-0.1628;9.7875;-0.021;-0.1617;9.8052;-0.028;-0.023;0.3249;0.0;0.0;-0.1869;173.0;-14.75;8.13;-20.87;61.22;0.93;0.11;5.0;17.708;;;;NaN;;;;0 / 0;6744;2022-11-16 22:12:49:580
0.0;-0.1628;9.7875;-0.021;-0.1617;9.8052;-0.028;-0.023;0.3249;0.0037;0.0024;-0.2969;173.0;-15.31;8.13;-20.12;62.98;0.94;0.12;5.0;17.708;;;;NaN;;;;0 / 0;6754;2022-11-16 22:12:49:590
0.0;-0.1628;9.7875;-0.0191;-0.1621;9.8052;-0.028;-0.023;0.3249;0.0037;0.0024;-0.2969;173.0;-15.31;8.13;-20.12;62.98;0.94;0.12;5.0;17.803;;;;NaN;;;;0 / 0;6765;2022-11-16 22:12:49:601
