sep=;
ACCELEROMETER X (m/s²);ACCELEROMETER Y (m/s²);ACCELEROMETER Z (m/s²);GRAVITY X (m/s²);GRAVITY Y (m/s²);GRAVITY Z (m/s²);LINEAR ACCELERATION X (m/s²);LINEAR ACCELERATION Y (m/s²);LINEAR ACCELERATION Z (m/s²);GYROSCOPE X (rad/s);GYROSCOPE Y (rad/s);GYROSCOPE Z (rad/s);LIGHT (lux);MAGNETIC FIELD X (μT);MAGNETIC FIELD Y (μT);MAGNETIC FIELD Z (μT);ORIENTATION Z (azimuth °);ORIENTATION X (pitch °);ORIENTATION Y (roll °);PROXIMITY (m);SOUND LEVEL (dB);LOCATION Latitude : ;LOCATION Longitude : ;LOCATION Altitude ( m);LOCATION Altitude-google ( m);LOCATION Speed ( m/s);LOCATION Accuracy ( m);LOCATION ORIENTATION (°);Satellites in range;Time since start in ms ;YYYY-MO-DD HH-MI-SS_SSS
0.0862;0.0192;9.7779;0.1373;-0.0203;9.8056;0.049;7.0E-4;0.1775;0.0;0.0;0.0;119.0;-14.0;-11.19;11.44;130.26;0.11;-0.76;5.0;17.826;46.035576;11.130806;;NaN;;899.999;;3 / 24;7;2022-11-16 23:02:14:828
0.0862;0.0192;9.7779;0.135;-0.0172;9.8057;-0.0566;0.0074;0.197;0.0;0.0;0.0;119.0;-14.0;-11.19;11.44;130.26;0.11;-0.76;5.0;17.826;46.035576;11.130806;;NaN;;899.999;;3 / 24;18;2022-11-16 23:02:14:839
0.0862;0.0192;9.7779;0.135;-0.0172;9.8057;-0.0566;0.0074;0.197;0.0;0.0;0.0;119.0;-14.0;-11.19;11.44;130.26;0.11;-0.76;5.0;17.826;46.035576;11.130806;;NaN;;899.999;;3 / 24;28;2022-11-16 23:02:14:849
0.0862;0.0192;9.7779;0.135;-0.0172;9.8057;-0.0566;0.0074;0.197;0.0;0.0;0.0;119.0;-14.0;-11.19;11.44;130.26;0.11;-0.76;5.0;17.826;46.035576;11.130806;;NaN;;899.999;;3 / 24;38;2022-11-16 23:02:14:859
0.0862;0.0192;9.7779;0.135;-0.0172;9.8057;-0.0566;0.0074;0.197;0.0;0.0;0.0;119.0;-14.0;-11.19;11.44;130.26;0.11;-0.76;5.0;17.826;46.035576;11.130806;;NaN;;899.999;;3 / 24;48;2022-11-16 23:02:14:869
0.1245;-0.0096;9.7779;0.135;-0.0172;9.8057;-0.0566;0.0074;0.197;0.0;0.0;0.0;119.0;-14.0;-11.19;11.44;130.26;0.11;-0.76;5.0;17.826;46.035576;11.130806;;NaN;;899.999;;3 / 24;58;2022-11-16 23:02:14:879
0.1245;-0.0096;9.7779;0.135;-0.0172;9.8057;-0.0566;0.0074;0.197;0.0;0.0;0.0;127.0;-13.75;-11.25;11.69;127.78;0.1;-0.79;5.0;17.826;46.035576;11.130806;;NaN;;899.999;;3 / 24;68;2022-11-16 23:02:14:889
0.1245;-0.0096;9.7779;0.1373;-0.0146;9.8056;0.0293;0.0146;0.1774;0.0;0.0;0.0;127.0;-13.75;-11.25;11.69;127.78;0.1;-0.79;5.0;17.826;46.035576;11.130806;;NaN;;899.999;;3 / 24;79;2022-11-16 23:02:14:900
0.1245;-0.0096;9.7779;0.1373;-0.0146;9.8056;0.0293;0.0146;0.1774;0.0;0.0;0.0;127.0;-13.75;-11.25;11.69;127.78;0.1;-0.79;5.0;17.826;46.035576;11.130806;;NaN;;899.999;;3 / 24;88;2022-11-16 23:02:14:909
0.1245;-0.0096;9.7779;0.1373;-0.0146;9.8056;0.0293;0.0146;0.1774;0.0;0.0;0.0;127.0;-13.75;-11.25;11.69;127.78;0.1;-0.79;5.0;17.826;46.035576;11.130806;;NaN;;899.999;;3 / 24;98;2022-11-16 23:02:14:919
0.1245;-0.0096;9.7779;0.1373;-0.0146;9.8056;0.0293;0.0146;0.1774;0.0;0.0;0.0;127.0;-13.75;-11.25;11.69;127.78;0.1;-0.79;5.0;17.826;46.035576;11.130806;;NaN;;899.999;;3 / 24;108;2022-11-16 23:02:14:929
0.1149;-0.0287;9.7875;0.1373;-0.0146;9.8056;0.0293;0.0146;0.1774;0.0;0.0;0.0;127.0;-13.75;-11.25;11.69;127.78;0.1;-0.79;5.0;17.826;46.035576;11.130806;;NaN;;899.999;;3 / 24;118;2022-11-16 23:02:14:939
0.1149;-0.0287;9.7875;0.1373;-0.0146;9.8056;0.0293;0.0146;0.1774;0.0;0.0;0.0;127.0;-13.75;-11.25;11.69;127.78;0.1;-0.79;5.0;17.826;46.035576;11.130806;;NaN;;899.999;;3 / 24;128;2022-11-16 23:02:14:949
0.1149;-0.0287;9.7875;0.1342;-0.0138;9.8057;0.0293;0.0146;0.1774;0.0;0.0;0.0;127.0;-13.75;-11.25;11.69;127.78;0.1;-0.79;5.0;17.826;46.035576;11.130806;;NaN;;899.999;;3 / 24;138;2022-11-16 23:02:14:959
0.1149;-0.0287;9.7875;0.1342;-0.0138;9.8057;0.0293;0.0146;0.1774;0.0;0.0;0.0;127.0;-13.62;-11.5;11.69;127.78;0.1;-0.79;5.0;17.826;46.035576;11.130806;;NaN;;899.999;;3 / 24;148;2022-11-16 23:02:14:969
0.1149;-0.0287;9.7875;0.1342;-0.0138;9.8057;-0.0063;0.0319;0.2166;0.0;0.0;0.0;127.0;-13.62;-11.5;11.69;127.78;0.1;-0.79;5.0;17.826;46.035576;11.130806;;NaN;;899.999;;3 / 24;158;2022-11-16 23:02:14:979
0.1149;-0.0287;9.7875;0.1342;-0.0138;9.8057;-0.0063;0.0319;0.2166;0.0;0.0;0.0;127.0;-13.62;-11.5;11.69;127.78;0.1;-0.79;5.0;17.826;46.035576;11.130806;;NaN;;899.999;;3 / 24;168;2022-11-16 23:02:14:989
0.1149;-0.0287;9.7875;0.1342;-0.0138;9.8057;-0.0063;0.0319;0.2166;0.0;0.0;0.0;127.0;-13.62;-11.5;11.69;127.78;0.1;-0.79;5.0;17.826;46.035576;11.130806;;NaN;;899.999;;3 / 24;178;2022-11-16 23:02:14:999
0.1149;-0.0287;9.7588;0.1342;-0.0138;9.8057;-0.0063;0.0319;0.2166;0.0;0.0;0.0;127.0;-13.62;-11.5;11.69;127.78;0.1;-0.79;5.0;17.826;46.035576;11.130806;;NaN;;899.999;;3 / 24;188;2022-11-16 23:02:15:009
0.1149;-0.0287;9.7588;0.1342;-0.0138;9.8057;-0.0063;0.0319;0.2166;0.0;0.0;0.0;127.0;-13.62;-11.5;11.69;127.78;0.1;-0.79;5.0;17.826;46.035576;11.130806;;NaN;;899.999;;3 / 24;198;2022-11-16 23:02:15:019
0.1149;-0.0287;9.7588;0.1334;-0.0123;9.8057;-0.0063;0.0319;0.2166;0.0;0.0;0.0;127.0;-13.87;-11.5;11.88;127.8;0.07;-0.78;5.0;17.826;46.035576;11.130806;;NaN;;899.999;;3 / 24;208;2022-11-16 23:02:15:029
0.1149;-0.0287;9.7588;0.1334;-0.0123;9.8057;-0.0145;0.0029;0.246;0.0;0.0;0.0;127.0;-13.87;-11.5;11.88;127.8;0.07;-0.78;5.0;17.826;46.035576;11.130806;;NaN;;899.999;;3 / 24;218;2022-11-16 23:02:15:039
0.1149;-0.0287;9.7588;0.1334;-0.0123;9.8057;-0.0145;0.0029;0.246;0.0;0.0;0.0;127.0;-13.87;-11.5;11.88;127.8;0.07;-0.78;5.0;17.826;46.035576;11.130806;;NaN;;899.999;;3 / 24;228;2022-11-16 23:02:15:049
0.1149;-0.0287;9.7588;0.1334;-0.0123;9.8057;-0.0145;0.0029;0.246;0.0;0.0;0.0;127.0;-13.87;-11.5;11.88;127.8;0.07;-0.78;5.0;17.897;46.035576;11.130806;;NaN;;899.999;;3 / 24;237;2022-11-16 23:02:15:058
0.0958;-0.0479;9.7779;0.1334;-0.0123;9.8057;-0.0145;0.0029;0.246;0.0;0.0;0.0;127.0;-13.87;-11.5;11.88;127.8;0.07;-0.78;5.0;17.897;46.035576;11.130806;;NaN;;899.999;;3 / 24;248;2022-11-16 23:02:15:069
0.0958;-0.0479;9.7779;0.1326;-0.0119;9.8057;-0.0145;0.0029;0.246;0.0;0.0;0.0;127.0;-13.87;-11.5;11.88;127.8;0.07;-0.78;5.0;17.897;46.035576;11.130806;;NaN;;899.999;;3 / 24;258;2022-11-16 23:02:15:079
0.0958;-0.0479;9.7779;0.1326;-0.0119;9.8057;-0.0145;0.0029;0.246;0.0;0.0;0.0;127.0;-13.87;-11.5;11.88;127.8;0.07;-0.78;5.0;17.897;46.035576;11.130806;;NaN;;899.999;;3 / 24;268;2022-11-16 23:02:15:089
0.0958;-0.0479;9.7779;0.1326;-0.0119;9.8057;-0.0032;0.0099;0.2166;0.0;0.0;0.0;127.0;-13.62;-11.31;11.63;127.8;0.07;-0.78;5.0;17.897;46.035576;11.130806;;NaN;;899.999;;3 / 24;278;2022-11-16 23:02:15:099
0.0958;-0.0479;9.7779;0.1326;-0.0119;9.8057;-0.0032;0.0099;0.2166;0.0;0.0;0.0;127.0;-13.62;-11.31;11.63;127.8;0.07;-0.78;5.0;17.897;46.035576;11.130806;;NaN;;899.999;;3 / 24;288;2022-11-16 23:02:15:109
0.0958;-0.0479;9.7779;0.1326;-0.0119;9.8057;-0.0032;0.0099;0.2166;0.0;0.0;0.0;127.0;-13.62;-11.31;11.63;127.8;0.07;-0.78;5.0;17.897;46.035576;11.130806;;NaN;;899.999;;3 / 24;298;2022-11-16 23:02:15:119
0.0958;-0.0479;9.7779;0.1326;-0.0119;9.8057;-0.0032;0.0099;0.2166;0.0;0.0;0.0;127.0;-13.62;-11.31;11.63;127.8;0.07;-0.78;5.0;17.897;46.035576;11.130806;;NaN;;899.999;;3 / 24;308;2022-11-16 23:02:15:129
0.1245;-0.0383;9.7683;0.1307;-0.0157;9.8057;-0.0032;0.0099;0.2166;0.0134;0.0183;-0.0757;127.0;-13.62;-11.31;11.63;127.8;0.07;-0.78;5.0;17.897;46.035576;11.130806;;NaN;;899.999;;3 / 24;318;2022-11-16 23:02:15:139
0.1245;-0.0383;9.7683;0.1307;-0.0157;9.8057;-0.0032;0.0099;0.2166;0.0134;0.0183;-0.0757;127.0;-13.62;-11.31;11.63;127.8;0.07;-0.78;5.0;17.897;46.035576;11.130806;;NaN;;899.999;;3 / 24;328;2022-11-16 23:02:15:149
0.1245;-0.0383;9.7683;0.1307;-0.0157;9.8057;-0.0032;0.0099;0.2166;0.0134;0.0183;-0.0757;127.0;-13.62;-11.31;11.63;127.8;0.07;-0.78;5.0;17.897;46.035576;11.130806;;NaN;;899.999;;3 / 24;338;2022-11-16 23:02:15:159
0.1245;-0.0383;9.7683;0.1307;-0.0157;9.8057;-0.0032;0.0099;0.2166;0.0134;0.0183;-0.0757;127.0;-13.5;-11.25;11.5;129.85;0.09;-0.76;5.0;17.897;46.035576;11.130806;;NaN;;899.999;;3 / 24;348;2022-11-16 23:02:15:169
0.1245;-0.0383;9.7683;0.1307;-0.0157;9.8057;0.0325;0.0786;0.2068;0.0134;0.0183;-0.0757;127.0;-13.5;-11.25;11.5;129.85;0.09;-0.76;5.0;17.897;46.035576;11.130806;;NaN;;899.999;;3 / 24;358;2022-11-16 23:02:15:179
0.1245;-0.0383;9.7683;0.1307;-0.0157;9.8057;0.0325;0.0786;0.2068;0.0134;0.0183;-0.0757;127.0;-13.5;-11.25;11.5;129.85;0.09;-0.76;5.0;17.897;46.035576;11.130806;;NaN;;899.999;;3 / 24;368;2022-11-16 23:02:15:189
0.1437;-0.0575;9.8258;0.1346;-0.0103;9.8057;0.0325;0.0786;0.2068;0.0134;0.0183;-0.0757;127.0;-13.5;-11.25;11.5;129.85;0.09;-0.76;5.0;17.897;46.035576;11.130806;;NaN;;899.999;;3 / 24;378;2022-11-16 23:02:15:199
0.1437;-0.0575;9.8258;0.1346;-0.0103;9.8057;0.0325;0.0786;0.2068;0.0134;0.0183;-0.0757;127.0;-13.5;-11.25;11.5;129.85;0.09;-0.76;5.0;17.897;46.035576;11.130806;;NaN;;899.999;;3 / 24;388;2022-11-16 23:02:15:209
0.1437;-0.0575;9.8258;0.1346;-0.0103;9.8057;0.0325;0.0786;0.2068;0.0134;0.0183;-0.0757;127.0;-13.5;-11.25;11.5;129.85;0.09;-0.76;5.0;17.897;46.035576;11.130806;;NaN;;899.999;;3 / 24;397;2022-11-16 23:02:15:218
0.1437;-0.0575;9.8258;0.1346;-0.0103;9.8057;0.0325;0.0786;0.2068;0.0134;0.0183;-0.0757;127.0;-13.5;-11.25;11.5;129.85;0.09;-0.76;5.0;17.897;46.035576;11.130806;;NaN;;899.999;;3 / 24;408;2022-11-16 23:02:15:229
0.1437;-0.0575;9.8258;0.1346;-0.0103;9.8057;-0.0353;-0.0013;0.1382;0.0134;0.0183;-0.0757;127.0;-13.5;-11.25;11.5;129.85;0.09;-0.76;5.0;17.897;46.035576;11.130806;;NaN;;899.999;;3 / 24;418;2022-11-16 23:02:15:239
0.1437;-0.0575;9.8258;0.1346;-0.0103;9.8057;-0.0353;-0.0013;0.1382;0.0134;0.0183;-0.0757;127.0;-14.25;-11.5;11.69;129.85;0.09;-0.76;5.0;17.897;46.035576;11.130806;;NaN;;899.999;;3 / 24;427;2022-11-16 23:02:15:248
0.1437;-0.0575;9.8258;0.1295;-0.0103;9.8057;-0.0353;-0.0013;0.1382;0.0134;0.0183;-0.0757;127.0;-14.25;-11.5;11.69;129.85;0.09;-0.76;5.0;17.897;46.035576;11.130806;;NaN;;899.999;;3 / 24;438;2022-11-16 23:02:15:259
0.1341;-0.0096;9.7971;0.1295;-0.0103;9.8057;-0.0353;-0.0013;0.1382;0.0;0.0;0.0;127.0;-14.25;-11.5;11.69;129.85;0.09;-0.76;5.0;17.897;46.035576;11.130806;;NaN;;899.999;;3 / 24;448;2022-11-16 23:02:15:269
0.1341;-0.0096;9.7971;0.1295;-0.0103;9.8057;-0.0353;-0.0013;0.1382;0.0;0.0;0.0;127.0;-14.25;-11.5;11.69;129.85;0.09;-0.76;5.0;17.897;46.035576;11.130806;;NaN;;899.999;;3 / 24;458;2022-11-16 23:02:15:279
0.1341;-0.0096;9.7971;0.1295;-0.0103;9.8057;-0.0353;-0.0013;0.1382;0.0;0.0;0.0;127.0;-14.25;-11.5;11.69;129.85;0.09;-0.76;5.0;17.897;46.035576;11.130806;;NaN;;899.999;;3 / 24;468;2022-11-16 23:02:15:289
0.1341;-0.0096;9.7971;0.1295;-0.0103;9.8057;0.0273;-0.0473;0.246;0.0;0.0;0.0;127.0;-14.25;-11.5;11.69;129.85;0.09;-0.76;5.0;17.897;46.035576;11.130806;;NaN;;899.999;;3 / 24;478;2022-11-16 23:02:15:299
0.1341;-0.0096;9.7971;0.1295;-0.0103;9.8057;0.0273;-0.0473;0.246;0.0;0.0;0.0;127.0;-16.0;-10.44;8.0;121.82;0.06;-0.76;5.0;17.897;46.035576;11.130806;;NaN;;899.999;;3 / 24;488;2022-11-16 23:02:15:309
0.1341;-0.0096;9.7971;0.1306;-0.013;9.8057;0.0273;-0.0473;0.246;0.0;0.0;0.0;127.0;-16.0;-10.44;8.0;121.82;0.06;-0.76;5.0;17.897;46.035576;11.130806;;NaN;;899.999;;3 / 24;498;2022-11-16 23:02:15:319
0.1149;0.0192;9.73;0.1306;-0.013;9.8057;0.0273;-0.0473;0.246;0.0;0.0;0.0;127.0;-16.0;-10.44;8.0;121.82;0.06;-0.76;5.0;17.897;46.035576;11.130806;;NaN;;899.999;;3 / 24;508;2022-11-16 23:02:15:329
0.1149;0.0192;9.73;0.1306;-0.013;9.8057;0.0273;-0.0473;0.246;0.0;0.0;0.0;127.0;-16.0;-10.44;8.0;121.82;0.06;-0.76;5.0;17.897;46.035576;11.130806;;NaN;;899.999;;3 / 24;518;2022-11-16 23:02:15:339
0.1149;0.0192;9.73;0.1306;-0.013;9.8057;0.0273;-0.0473;0.246;0.0;0.0;0.0;127.0;-16.0;-10.44;8.0;121.82;0.06;-0.76;5.0;17.897;46.035576;11.130806;;NaN;;899.999;;3 / 24;528;2022-11-16 23:02:15:349
0.1149;0.0192;9.73;0.1306;-0.013;9.8057;0.0171;0.013;0.1381;0.0;0.0;0.0;127.0;-16.0;-10.44;8.0;121.82;0.06;-0.76;5.0;17.897;46.035576;11.130806;;NaN;;899.999;;3 / 24;538;2022-11-16 23:02:15:359
0.1149;0.0192;9.73;0.1306;-0.013;9.8057;0.0171;0.013;0.1381;0.0;0.0;0.0;130.0;-16.0;-10.44;8.0;121.82;0.06;-0.76;5.0;17.897;46.035576;11.130806;;NaN;;899.999;;3 / 24;548;2022-11-16 23:02:15:369
0.1149;0.0192;9.73;0.1268;-0.0126;9.8058;0.0171;0.013;0.1381;0.0;0.0;0.0;130.0;-15.25;-11.25;8.94;121.82;0.06;-0.76;5.0;18.207;46.035576;11.130806;;NaN;;899.999;;3 / 24;558;2022-11-16 23:02:15:379
0.1149;0.0192;9.73;0.1268;-0.0126;9.8058;0.0171;0.013;0.1381;0.0;0.0;0.0;130.0;-15.25;-11.25;8.94;121.82;0.06;-0.76;5.0;18.207;46.035576;11.130806;;NaN;;899.999;;3 / 24;568;2022-11-16 23:02:15:389
0.1053;-0.0575;9.7875;0.1268;-0.0126;9.8058;0.0171;0.013;0.1381;0.0049;0.011;0.303;130.0;-15.25;-11.25;8.94;121.82;0.06;-0.76;5.0;18.207;46.035576;11.130806;;NaN;;899.999;;3 / 24;578;2022-11-16 23:02:15:399
0.1053;-0.0575;9.7875;0.1268;-0.0126;9.8058;0.0171;0.013;0.1381;0.0049;0.011;0.303;130.0;-15.25;-11.25;8.94;121.82;0.06;-0.76;5.0;18.207;46.035576;11.130806;;NaN;;899.999;;3 / 24;588;2022-11-16 23:02:15:409
0.1053;-0.0575;9.7875;0.1268;-0.0126;9.8058;0.0477;-0.0242;0.1969;0.0049;0.011;0.303;130.0;-15.25;-11.25;8.94;121.82;0.06;-0.76;5.0;18.207;46.035576;11.130806;;NaN;;899.999;;3 / 24;598;2022-11-16 23:02:15:419
0.1053;-0.0575;9.7875;0.1268;-0.0126;9.8058;0.0477;-0.0242;0.1969;0.0049;0.011;0.303;130.0;-15.25;-11.25;8.94;121.82;0.06;-0.76;5.0;18.207;46.035576;11.130806;;NaN;;899.999;;3 / 24;610;2022-11-16 23:02:15:431
0.1053;-0.0575;9.7875;0.1295;-0.0134;9.8057;0.0477;-0.0242;0.1969;0.0049;0.011;0.303;130.0;-15.25;-11.25;8.94;121.82;0.06;-0.76;5.0;18.207;46.035576;11.130806;;NaN;;899.999;;3 / 24;618;2022-11-16 23:02:15:439
0.1053;-0.0575;9.7875;0.1295;-0.0134;9.8057;0.0477;-0.0242;0.1969;0.0049;0.011;0.303;130.0;-15.44;-11.5;10.13;125.98;0.08;-0.76;5.0;18.207;46.035576;11.130806;;NaN;;899.999;;3 / 24;628;2022-11-16 23:02:15:449
0.1628;-0.0096;9.7683;0.1295;-0.0134;9.8057;0.0477;-0.0242;0.1969;0.0049;0.011;0.303;130.0;-15.44;-11.5;10.13;125.98;0.08;-0.76;5.0;18.207;46.035576;11.130806;;NaN;;899.999;;3 / 24;638;2022-11-16 23:02:15:459
0.1628;-0.0096;9.7683;0.1295;-0.0134;9.8057;0.0477;-0.0242;0.1969;0.0049;0.011;0.303;130.0;-15.44;-11.5;10.13;125.98;0.08;-0.76;5.0;18.207;46.035576;11.130806;;NaN;;899.999;;3 / 24;648;2022-11-16 23:02:15:469
0.1628;-0.0096;9.7683;0.1295;-0.0134;9.8057;-0.022;-0.0324;0.2068;0.0049;0.011;0.303;130.0;-15.44;-11.5;10.13;125.98;0.08;-0.76;5.0;18.207;46.035576;11.130806;;NaN;;899.999;;3 / 24;658;2022-11-16 23:02:15:479
0.1628;-0.0096;9.7683;0.1295;-0.0134;9.8057;-0.022;-0.0324;0.2068;0.0049;0.011;0.303;129.0;-15.44;-11.5;10.13;125.98;0.08;-0.76;5.0;18.207;46.035576;11.130806;;NaN;;899.999;;3 / 24;668;2022-11-16 23:02:15:489
0.1628;-0.0096;9.7683;0.1295;-0.0169;9.8057;-0.022;-0.0324;0.2068;0.0049;0.011;0.303;129.0;-15.44;-11.5;10.13;125.98;0.08;-0.76;5.0;18.207;46.035576;11.130806;;NaN;;899.999;;3 / 24;678;2022-11-16 23:02:15:499
0.1628;-0.0096;9.7683;0.1295;-0.0169;9.8057;-0.022;-0.0324;0.2068;0.0049;0.011;0.303;129.0;-15.44;-11.5;10.13;125.98;0.08;-0.76;5.0;18.207;46.035576;11.130806;;NaN;;899.999;;3 / 24;688;2022-11-16 23:02:15:509
0.1628;-0.0096;9.7683;0.1295;-0.0169;9.8057;-0.022;-0.0324;0.2068;0.0049;0.011;0.303;129.0;-15.44;-10.62;10.13;125.98;0.08;-0.76;5.0;18.207;46.035576;11.130806;;NaN;;899.999;;3 / 24;698;2022-11-16 23:02:15:519
0.0958;0.0;9.7971;0.1295;-0.0169;9.8057;-0.022;-0.0324;0.2068;0.0061;0.0098;0.1356;129.0;-15.44;-10.62;10.13;125.98;0.08;-0.76;5.0;18.207;46.035576;11.130806;;NaN;;899.999;;3 / 24;708;2022-11-16 23:02:15:529
0.0958;0.0;9.7971;0.1295;-0.0169;9.8057;0.0107;0.0153;0.1969;0.0061;0.0098;0.1356;129.0;-15.44;-10.62;10.13;125.98;0.08;-0.76;5.0;18.207;46.035576;11.130806;;NaN;;899.999;;3 / 24;718;2022-11-16 23:02:15:539
0.0958;0.0;9.7971;0.1295;-0.0169;9.8057;0.0107;0.0153;0.1969;0.0061;0.0098;0.1356;129.0;-15.44;-10.62;10.13;125.98;0.08;-0.76;5.0;18.207;46.035576;11.130806;;NaN;;899.999;;3 / 24;728;2022-11-16 23:02:15:549
0.0958;0.0;9.7971;0.1268;-0.0142;9.8058;0.0107;0.0153;0.1969;0.0061;0.0098;0.1356;129.0;-15.44;-10.62;10.13;125.98;0.08;-0.76;5.0;18.207;46.035576;11.130806;;NaN;;899.999;;3 / 24;738;2022-11-16 23:02:15:559
0.0958;0.0;9.7971;0.1268;-0.0142;9.8058;0.0107;0.0153;0.1969;0.0061;0.0098;0.1356;129.0;-15.44;-10.62;10.13;125.98;0.08;-0.76;5.0;18.207;46.035576;11.130806;;NaN;;899.999;;3 / 24;748;2022-11-16 23:02:15:569
0.0958;0.0;9.7971;0.1268;-0.0142;9.8058;0.0107;0.0153;0.1969;0.0061;0.0098;0.1356;129.0;-15.44;-10.62;10.13;125.98;0.08;-0.76;5.0;18.207;46.035576;11.130806;;NaN;;899.999;;3 / 24;758;2022-11-16 23:02:15:579
0.1532;0.0;9.7205;0.1268;-0.0142;9.8058;0.0107;0.0153;0.1969;0.0061;0.0098;0.1356;129.0;-14.81;-11.31;10.81;125.96;0.08;-0.74;5.0;18.207;46.035576;11.130806;;NaN;;899.999;;3 / 24;768;2022-11-16 23:02:15:589
0.1532;0.0;9.7205;0.1268;-0.0142;9.8058;-0.0185;0.0063;0.2361;0.0061;0.0098;0.1356;129.0;-14.81;-11.31;10.81;125.96;0.08;-0.74;5.0;18.207;46.035576;11.130806;;NaN;;899.999;;3 / 24;778;2022-11-16 23:02:15:599
0.1532;0.0;9.7205;0.1268;-0.0142;9.8058;-0.0185;0.0063;0.2361;0.0061;0.0098;0.1356;129.0;-14.81;-11.31;10.81;125.96;0.08;-0.74;5.0;18.207;46.035576;11.130806;;NaN;;899.999;;3 / 24;788;2022-11-16 23:02:15:609
0.1532;0.0;9.7205;0.1257;-0.0134;9.8058;-0.0185;0.0063;0.2361;0.0061;0.0098;0.1356;129.0;-14.81;-11.31;10.81;125.96;0.08;-0.74;5.0;18.207;46.035576;11.130806;;NaN;;899.999;;3 / 24;798;2022-11-16 23:02:15:619
0.1532;0.0;9.7205;0.1257;-0.0134;9.8058;-0.0185;0.0063;0.2361;0.0061;0.0098;0.1356;129.0;-14.81;-11.31;10.81;125.96;0.08;-0.74;5.0;18.207;46.035576;11.130806;;NaN;;899.999;;3 / 24;807;2022-11-16 23:02:15:628
0.1532;0.0;9.7205;0.1257;-0.0134;9.8058;-0.0185;0.0063;0.2361;0.0061;0.0098;0.1356;129.0;-14.81;-11.31;10.81;125.96;0.08;-0.74;5.0;18.207;46.035576;11.130806;;NaN;;899.999;;3 / 24;818;2022-11-16 23:02:15:639
0.1532;0.0;9.7205;0.1257;-0.0134;9.8058;-0.0185;0.0063;0.2361;0.0061;0.0098;0.1356;129.0;-14.81;-11.31;10.81;125.96;0.08;-0.74;5.0;18.207;46.035576;11.130806;;NaN;;899.999;;3 / 24;828;2022-11-16 23:02:15:649
0.1724;-0.0192;9.845;0.1257;-0.0134;9.8058;-0.0185;0.0063;0.2361;0.0;0.0;0.0;129.0;-14.25;-11.5;11.56;125.96;0.08;-0.74;5.0;18.207;46.035576;11.130806;;NaN;;899.999;;3 / 24;838;2022-11-16 23:02:15:659
0.1724;-0.0192;9.845;0.1257;-0.0134;9.8058;-0.0185;0.0063;0.2361;0.0;0.0;0.0;129.0;-14.25;-11.5;11.56;125.96;0.08;-0.74;5.0;18.207;46.035576;11.130806;;NaN;;899.999;;3 / 24;848;2022-11-16 23:02:15:669
0.1724;-0.0192;9.845;0.1222;-0.0157;9.8058;0.0444;-0.0136;0.2459;0.0;0.0;0.0;129.0;-14.25;-11.5;11.56;125.96;0.08;-0.74;5.0;18.207;46.035576;11.130806;;NaN;;899.999;;3 / 24;858;2022-11-16 23:02:15:679
0.1724;-0.0192;9.845;0.1222;-0.0157;9.8058;0.0444;-0.0136;0.2459;0.0;0.0;0.0;129.0;-14.25;-11.5;11.56;125.96;0.08;-0.74;5.0;18.207;46.035576;11.130806;;NaN;;899.999;;3 / 24;868;2022-11-16 23:02:15:689
0.1724;-0.0192;9.845;0.1222;-0.0157;9.8058;0.0444;-0.0136;0.2459;0.0;0.0;0.0;129.0;-14.25;-11.5;11.56;125.96;0.08;-0.74;5.0;18.207;46.035576;11.130806;;NaN;;899.999;;3 / 24;878;2022-11-16 23:02:15:699
0.1724;-0.0192;9.845;0.1222;-0.0157;9.8058;0.0444;-0.0136;0.2459;0.0;0.0;0.0;129.0;-14.25;-11.5;11.56;125.96;0.08;-0.74;5.0;17.935;46.035576;11.130806;;NaN;;899.999;;3 / 24;888;2022-11-16 23:02:15:709
0.1724;-0.0096;9.7588;0.1222;-0.0157;9.8058;0.0444;-0.0136;0.2459;0.0;0.0;0.0;129.0;-14.25;-11.5;11.56;125.96;0.08;-0.74;5.0;17.935;46.035576;11.130806;;NaN;;899.999;;3 / 24;898;2022-11-16 23:02:15:719
0.1724;-0.0096;9.7588;0.1222;-0.0157;9.8058;0.0444;-0.0136;0.2459;0.0;0.0;0.0;130.0;-13.62;-10.87;11.88;127.82;0.09;-0.71;5.0;17.935;46.035576;11.130806;;NaN;;899.999;;3 / 24;908;2022-11-16 23:02:15:729
0.1724;-0.0096;9.7588;0.1222;-0.0157;9.8058;0.0444;-0.0136;0.2459;0.0;0.0;0.0;130.0;-13.62;-10.87;11.88;127.82;0.09;-0.71;5.0;17.935;46.035576;11.130806;;NaN;;899.999;;3 / 24;918;2022-11-16 23:02:15:739
0.1724;-0.0096;9.7588;0.1272;-0.0142;9.8058;2.0E-4;0.024;0.1773;0.0;0.0;0.0;130.0;-13.62;-10.87;11.88;127.82;0.09;-0.71;5.0;17.935;46.035576;11.130806;;NaN;;899.999;;3 / 24;928;2022-11-16 23:02:15:749
0.1724;-0.0096;9.7588;0.1272;-0.0142;9.8058;2.0E-4;0.024;0.1773;0.0;0.0;0.0;130.0;-13.62;-10.87;11.88;127.82;0.09;-0.71;5.0;17.935;46.035576;11.130806;;NaN;;899.999;;3 / 24;938;2022-11-16 23:02:15:759
0.1724;-0.0096;9.7588;0.1272;-0.0142;9.8058;2.0E-4;0.024;0.1773;0.0;0.0;0.0;130.0;-13.62;-10.87;11.88;127.82;0.09;-0.71;5.0;17.935;46.035576;11.130806;;NaN;;899.999;;3 / 24;948;2022-11-16 23:02:15:769
0.1724;-0.0096;9.7588;0.1272;-0.0142;9.8058;2.0E-4;0.024;0.1773;0.0;0.0;0.0;130.0;-13.62;-10.87;11.88;127.82;0.09;-0.71;5.0;17.935;46.035576;11.130806;;NaN;;899.999;;3 / 24;958;2022-11-16 23:02:15:779
0.1149;0.0;9.7971;0.1272;-0.0142;9.8058;2.0E-4;0.024;0.1773;0.0024;0.0122;-0.1356;130.0;-13.62;-10.87;11.88;127.82;0.09;-0.71;5.0;17.935;46.035576;11.130806;;NaN;;899.999;;3 / 24;968;2022-11-16 23:02:15:789
0.1149;0.0;9.7971;0.128;-0.01;9.8058;2.0E-4;0.024;0.1773;0.0024;0.0122;-0.1356;130.0;-15.19;-11.25;9.31;127.82;0.09;-0.71;5.0;17.935;46.035576;11.130806;;NaN;;899.999;;3 / 24;978;2022-11-16 23:02:15:799
0.1149;0.0;9.7971;0.128;-0.01;9.8058;2.0E-4;0.024;0.1773;0.0024;0.0122;-0.1356;130.0;-15.19;-11.25;9.31;127.82;0.09;-0.71;5.0;17.935;46.035576;11.130806;;NaN;;899.999;;3 / 24;988;2022-11-16 23:02:15:809
0.1149;0.0;9.7971;0.128;-0.01;9.8058;0.0202;5.0E-4;0.1969;0.0024;0.0122;-0.1356;130.0;-15.19;-11.25;9.31;127.82;0.09;-0.71;5.0;17.935;46.035576;11.130806;;NaN;;899.999;;3 / 24;997;2022-11-16 23:02:15:818
0.1149;0.0;9.7971;0.128;-0.01;9.8058;0.0202;5.0E-4;0.1969;0.0024;0.0122;-0.1356;130.0;-15.19;-11.25;9.31;127.82;0.09;-0.71;5.0;17.935;46.035576;11.130806;;NaN;;899.999;;3 / 24;1008;2022-11-16 23:02:15:829
0.1149;0.0;9.7971;0.128;-0.01;9.8058;0.0202;5.0E-4;0.1969;0.0024;0.0122;-0.1356;130.0;-15.19;-11.25;9.31;127.82;0.09;-0.71;5.0;17.935;46.035576;11.130806;;NaN;;899.999;;3 / 24;1018;2022-11-16 23:02:15:839
0.0862;-0.0096;9.7875;0.128;-0.01;9.8058;0.0202;5.0E-4;0.1969;0.0024;0.0122;-0.1356;127.0;-15.19;-11.25;9.31;127.82;0.09;-0.71;5.0;17.935;46.035576;11.130806;;NaN;;899.999;;3 / 24;1028;2022-11-16 23:02:15:849
0.0862;-0.0096;9.7875;0.1291;-0.0134;9.8057;0.0202;5.0E-4;0.1969;0.0024;0.0122;-0.1356;127.0;-15.19;-11.25;9.31;127.82;0.09;-0.71;5.0;17.935;46.035576;11.130806;;NaN;;899.999;;3 / 24;1038;2022-11-16 23:02:15:859
0.0862;-0.0096;9.7875;0.1291;-0.0134;9.8057;0.0202;5.0E-4;0.1969;0.0024;0.0122;-0.1356;127.0;-13.81;-11.12;11.81;127.81;0.08;-0.75;5.0;17.935;46.035576;11.130806;;NaN;;899.999;;3 / 24;1047;2022-11-16 23:02:15:868
0.0862;-0.0096;9.7875;0.1291;-0.0134;9.8057;0.0525;-0.0053;0.1578;0.0024;0.0122;-0.1356;127.0;-13.81;-11.12;11.81;127.81;0.08;-0.75;5.0;17.935;46.035576;11.130806;;NaN;;899.999;;3 / 24;1058;2022-11-16 23:02:15:879
0.0862;-0.0096;9.7875;0.1291;-0.0134;9.8057;0.0525;-0.0053;0.1578;0.0024;0.0122;-0.1356;127.0;-13.81;-11.12;11.81;127.81;0.08;-0.75;5.0;17.935;46.035576;11.130806;;NaN;;899.999;;3 / 24;1068;2022-11-16 23:02:15:889
0.0862;-0.0096;9.7875;0.1291;-0.0134;9.8057;0.0525;-0.0053;0.1578;0.0024;0.0122;-0.1356;127.0;-13.81;-11.12;11.81;127.81;0.08;-0.75;5.0;17.935;46.035576;11.130806;;NaN;;899.999;;3 / 24;1078;2022-11-16 23:02:15:899
0.0862;-0.0096;9.7875;0.1291;-0.0134;9.8057;0.0525;-0.0053;0.1578;0.0024;0.0122;-0.1356;127.0;-13.81;-11.12;11.81;127.81;0.08;-0.75;5.0;17.935;46.035576;11.130806;;NaN;;899.999;;3 / 24;1088;2022-11-16 23:02:15:909
0.1628;0.0;9.8067;0.1322;-0.0111;9.8057;0.0525;-0.0053;0.1578;-0.0147;0.0073;-0.11;127.0;-13.81;-11.12;11.81;127.81;0.08;-0.75;5.0;17.935;46.035576;11.130806;;NaN;;899.999;;3 / 24;1098;2022-11-16 23:02:15:919
0.1628;0.0;9.8067;0.1322;-0.0111;9.8057;0.0525;-0.0053;0.1578;-0.0147;0.0073;-0.11;127.0;-13.81;-11.12;11.81;127.81;0.08;-0.75;5.0;17.935;46.035576;11.130806;;NaN;;899.999;;3 / 24;1108;2022-11-16 23:02:15:929
0.1628;0.0;9.8067;0.1322;-0.0111;9.8057;0.0525;-0.0053;0.1578;-0.0147;0.0073;-0.11;127.0;-13.81;-11.12;11.81;127.81;0.08;-0.75;5.0;17.935;46.035576;11.130806;;NaN;;899.999;;3 / 24;1118;2022-11-16 23:02:15:939
0.1628;0.0;9.8067;0.1322;-0.0111;9.8057;-0.042;-0.0544;0.1577;-0.0147;0.0073;-0.11;127.0;-13.87;-11.44;11.44;127.81;0.08;-0.75;5.0;17.935;46.035576;11.130806;;NaN;;899.999;;3 / 24;1128;2022-11-16 23:02:15:949
0.1628;0.0;9.8067;0.1322;-0.0111;9.8057;-0.042;-0.0544;0.1577;-0.0147;0.0073;-0.11;127.0;-13.87;-11.44;11.44;127.81;0.08;-0.75;5.0;17.935;46.035576;11.130806;;NaN;;899.999;;3 / 24;1138;2022-11-16 23:02:15:959
0.1628;0.0;9.8067;0.1322;-0.0111;9.8057;-0.042;-0.0544;0.1577;-0.0147;0.0073;-0.11;127.0;-13.87;-11.44;11.44;127.81;0.08;-0.75;5.0;17.935;46.035576;11.130806;;NaN;;899.999;;3 / 24;1148;2022-11-16 23:02:15:969
0.182;-0.0096;9.7492;0.1322;-0.0118;9.8057;-0.042;-0.0544;0.1577;-0.0147;0.0073;-0.11;127.0;-13.87;-11.44;11.44;127.81;0.08;-0.75;5.0;17.935;46.035576;11.130806;;NaN;;899.999;;3 / 24;1158;2022-11-16 23:02:15:979
0.182;-0.0096;9.7492;0.1322;-0.0118;9.8057;-0.042;-0.0544;0.1577;-0.0147;0.0073;-0.11;127.0;-13.87;-11.44;11.44;127.81;0.08;-0.75;5.0;17.935;46.035576;11.130806;;NaN;;899.999;;3 / 24;1168;2022-11-16 23:02:15:989
0.182;-0.0096;9.7492;0.1322;-0.0118;9.8057;-0.042;-0.0544;0.1577;-0.0147;0.0073;-0.11;127.0;-13.87;-11.44;11.44;127.81;0.08;-0.75;5.0;17.935;46.035576;11.130806;;NaN;;899.999;;3 / 24;1178;2022-11-16 23:02:15:999
0.182;-0.0096;9.7492;0.1322;-0.0118;9.8057;-0.042;-0.0544;0.1577;-0.0147;0.0073;-0.11;127.0;-13.81;-11.25;11.81;127.8;0.07;-0.77;5.0;18.238;46.035576;11.130806;;NaN;;899.999;;3 / 24;1188;2022-11-16 23:02:16:009
0.182;-0.0096;9.7492;0.1322;-0.0118;9.8057;0.0012;-0.0328;0.2265;-0.0147;0.0073;-0.11;127.0;-13.81;-11.25;11.81;127.8;0.07;-0.77;5.0;18.238;46.035576;11.130806;;NaN;;899.999;;3 / 24;1198;2022-11-16 23:02:16:019
0.182;-0.0096;9.7492;0.1322;-0.0118;9.8057;0.0012;-0.0328;0.2265;-0.0147;0.0073;-0.11;127.0;-13.81;-11.25;11.81;127.8;0.07;-0.77;5.0;18.238;46.035576;11.130806;;NaN;;899.999;;3 / 24;1208;2022-11-16 23:02:16:029
0.182;-0.0096;9.7492;0.1356;-0.0173;9.8056;0.0012;-0.0328;0.2265;-0.0147;0.0073;-0.11;127.0;-13.81;-11.25;11.81;127.8;0.07;-0.77;5.0;18.238;46.035576;11.130806;;NaN;;899.999;;3 / 24;1218;2022-11-16 23:02:16:039
0.1437;-0.0096;9.8258;0.1356;-0.0173;9.8056;0.0012;-0.0328;0.2265;-0.0098;0.0037;-0.1112;127.0;-13.81;-11.25;11.81;127.8;0.07;-0.77;5.0;18.238;46.035576;11.130806;;NaN;;899.999;;3 / 24;1228;2022-11-16 23:02:16:049
0.1437;-0.0096;9.8258;0.1356;-0.0173;9.8056;0.0012;-0.0328;0.2265;-0.0098;0.0037;-0.1112;127.0;-13.81;-11.25;11.81;127.8;0.07;-0.77;5.0;18.238;46.035576;11.130806;;NaN;;899.999;;3 / 24;1237;2022-11-16 23:02:16:058
0.1437;-0.0096;9.8258;0.1356;-0.0173;9.8056;0.0012;-0.0328;0.2265;-0.0098;0.0037;-0.1112;127.0;-13.81;-11.25;11.81;127.8;0.07;-0.77;5.0;18.238;46.035576;11.130806;;NaN;;899.999;;3 / 24;1247;2022-11-16 23:02:16:068
0.1437;-0.0096;9.8258;0.1356;-0.0173;9.8056;0.0012;-0.0328;0.2265;-0.0098;0.0037;-0.1112;127.0;-13.62;-11.19;11.44;127.8;0.07;-0.77;5.0;18.238;46.035576;11.130806;;NaN;;899.999;;3 / 24;1258;2022-11-16 23:02:16:079
0.1437;-0.0096;9.8258;0.1356;-0.0173;9.8056;0.0012;-0.0328;0.2265;-0.0098;0.0037;-0.1112;127.0;-13.62;-11.19;11.44;127.8;0.07;-0.77;5.0;18.238;46.035576;11.130806;;NaN;;899.999;;3 / 24;1268;2022-11-16 23:02:16:089
0.1437;-0.0096;9.8258;0.1329;-0.0165;9.8057;-0.0054;-0.003;0.197;-0.0098;0.0037;-0.1112;127.0;-13.62;-11.19;11.44;127.8;0.07;-0.77;5.0;18.238;46.035576;11.130806;;NaN;;899.999;;3 / 24;1278;2022-11-16 23:02:16:099
0.182;-0.0575;9.7875;0.1329;-0.0165;9.8057;-0.0054;-0.003;0.197;-0.0098;0.0037;-0.1112;127.0;-13.62;-11.19;11.44;127.8;0.07;-0.77;5.0;18.238;46.035576;11.130806;;NaN;;899.999;;3 / 24;1288;2022-11-16 23:02:16:109
0.182;-0.0575;9.7875;0.1329;-0.0165;9.8057;-0.0054;-0.003;0.197;-0.0098;0.0037;-0.1112;127.0;-13.62;-11.19;11.44;127.8;0.07;-0.77;5.0;18.238;46.035576;11.130806;;NaN;;899.999;;3 / 24;1297;2022-11-16 23:02:16:118
0.182;-0.0575;9.7875;0.1329;-0.0165;9.8057;-0.0054;-0.003;0.197;-0.0098;0.0037;-0.1112;127.0;-13.62;-11.19;11.44;127.8;0.07;-0.77;5.0;18.238;46.035576;11.130806;;NaN;;899.999;;3 / 24;1308;2022-11-16 23:02:16:129
0.182;-0.0575;9.7875;0.1329;-0.0165;9.8057;-0.0054;-0.003;0.197;-0.0098;0.0037;-0.1112;127.0;-13.62;-11.19;11.44;127.8;0.07;-0.77;5.0;18.238;46.035576;11.130806;;NaN;;899.999;;3 / 24;1318;2022-11-16 23:02:16:139
0.182;-0.0575;9.7875;0.1329;-0.0165;9.8057;-0.0054;-0.003;0.197;-0.0098;0.0037;-0.1112;127.0;-14.19;-11.37;11.25;127.82;0.1;-0.78;5.0;18.238;46.035576;11.130806;;NaN;;899.999;;3 / 24;1328;2022-11-16 23:02:16:149
0.182;-0.0575;9.7875;0.1368;-0.0215;9.8056;4.0E-4;-0.0274;0.1873;-0.0098;0.0037;-0.1112;127.0;-14.19;-11.37;11.25;127.82;0.1;-0.78;5.0;18.238;46.035576;11.130806;;NaN;;899.999;;3 / 24;1338;2022-11-16 23:02:16:159
0.182;-0.0575;9.7875;0.1368;-0.0215;9.8056;4.0E-4;-0.0274;0.1873;-0.0098;0.0037;-0.1112;127.0;-14.19;-11.37;11.25;127.82;0.1;-0.78;5.0;18.238;46.035576;11.130806;;NaN;;899.999;;3 / 24;1348;2022-11-16 23:02:16:169
0.1532;0.0;9.8545;0.1368;-0.0215;9.8056;4.0E-4;-0.0274;0.1873;0.0;0.0;0.0;127.0;-14.19;-11.37;11.25;127.82;0.1;-0.78;5.0;18.238;46.035576;11.130806;;NaN;;899.999;;3 / 24;1358;2022-11-16 23:02:16:179
0.1532;0.0;9.8545;0.1368;-0.0215;9.8056;4.0E-4;-0.0274;0.1873;0.0;0.0;0.0;127.0;-14.19;-11.37;11.25;127.82;0.1;-0.78;5.0;18.238;46.035576;11.130806;;NaN;;899.999;;3 / 24;1368;2022-11-16 23:02:16:189
0.1532;0.0;9.8545;0.1368;-0.0215;9.8056;4.0E-4;-0.0274;0.1873;0.0;0.0;0.0;127.0;-14.19;-11.37;11.25;127.82;0.1;-0.78;5.0;18.238;46.035576;11.130806;;NaN;;899.999;;3 / 24;1378;2022-11-16 23:02:16:199
0.1532;0.0;9.8545;0.1368;-0.0215;9.8056;4.0E-4;-0.0274;0.1873;0.0;0.0;0.0;127.0;-14.19;-11.37;11.25;127.82;0.1;-0.78;5.0;18.238;46.035576;11.130806;;NaN;;899.999;;3 / 24;1388;2022-11-16 23:02:16:209
0.1532;0.0;9.8545;0.1287;-0.0211;9.8057;-0.0208;-0.0082;0.1577;0.0;0.0;0.0;127.0;-13.69;-10.81;11.38;127.82;0.1;-0.78;5.0;18.238;46.035576;11.130806;;NaN;;899.999;;3 / 24;1398;2022-11-16 23:02:16:219
0.1532;0.0;9.8545;0.1287;-0.0211;9.8057;-0.0208;-0.0082;0.1577;0.0;0.0;0.0;127.0;-13.69;-10.81;11.38;127.82;0.1;-0.78;5.0;18.238;46.035576;11.130806;;NaN;;899.999;;3 / 24;1408;2022-11-16 23:02:16:229
0.1149;-0.0192;9.8162;0.1287;-0.0211;9.8057;-0.0208;-0.0082;0.1577;0.0;0.0;0.0;127.0;-13.69;-10.81;11.38;127.82;0.1;-0.78;5.0;18.238;46.035576;11.130806;;NaN;;899.999;;3 / 24;1418;2022-11-16 23:02:16:239
0.1149;-0.0192;9.8162;0.1287;-0.0211;9.8057;-0.0208;-0.0082;0.1577;0.0;0.0;0.0;127.0;-13.69;-10.81;11.38;127.82;0.1;-0.78;5.0;18.238;46.035576;11.130806;;NaN;;899.999;;3 / 24;1428;2022-11-16 23:02:16:249
0.1149;-0.0192;9.8162;0.1287;-0.0211;9.8057;-0.0208;-0.0082;0.1577;0.0;0.0;0.0;127.0;-13.69;-10.81;11.38;127.82;0.1;-0.78;5.0;18.238;46.035576;11.130806;;NaN;;899.999;;3 / 24;1438;2022-11-16 23:02:16:259
0.1149;-0.0192;9.8162;0.1287;-0.0211;9.8057;-0.0208;-0.0082;0.1577;0.0;0.0;0.0;127.0;-13.69;-10.81;11.38;127.82;0.1;-0.78;5.0;18.238;46.035576;11.130806;;NaN;;899.999;;3 / 24;1448;2022-11-16 23:02:16:269
0.1149;-0.0192;9.8162;0.1279;-0.0203;9.8057;-0.0208;-0.0082;0.1577;0.0;0.0;0.0;127.0;-13.69;-10.81;11.38;127.82;0.1;-0.78;5.0;18.238;46.035576;11.130806;;NaN;;899.999;;3 / 24;1458;2022-11-16 23:02:16:279
0.1149;-0.0192;9.8162;0.1279;-0.0203;9.8057;-0.0102;0.0399;0.246;0.0;0.0;0.0;127.0;-14.19;-11.06;11.69;127.79;0.12;-0.75;5.0;18.238;46.035576;11.130806;;NaN;;899.999;;3 / 24;1467;2022-11-16 23:02:16:288
0.1149;-0.0192;9.8162;0.1279;-0.0203;9.8057;-0.0102;0.0399;0.246;0.0;0.0;0.0;127.0;-14.19;-11.06;11.69;127.79;0.12;-0.75;5.0;18.238;46.035576;11.130806;;NaN;;899.999;;3 / 24;1478;2022-11-16 23:02:16:299
0.1915;-0.0287;9.7779;0.1279;-0.0203;9.8057;-0.0102;0.0399;0.246;0.0;0.0;0.0;127.0;-14.19;-11.06;11.69;127.79;0.12;-0.75;5.0;18.238;46.035576;11.130806;;NaN;;899.999;;3 / 24;1488;2022-11-16 23:02:16:309
0.1915;-0.0287;9.7779;0.1279;-0.0203;9.8057;-0.0102;0.0399;0.246;0.0;0.0;0.0;127.0;-14.19;-11.06;11.69;127.79;0.12;-0.75;5.0;18.238;46.035576;11.130806;;NaN;;899.999;;3 / 24;1498;2022-11-16 23:02:16:319
0.1915;-0.0287;9.7779;0.1279;-0.0203;9.8057;-0.0102;0.0399;0.246;0.0;0.0;0.0;127.0;-14.19;-11.06;11.69;127.79;0.12;-0.75;5.0;18.238;46.035576;11.130806;;NaN;;899.999;;3 / 24;1509;2022-11-16 23:02:16:330
0.1915;-0.0287;9.7779;0.1267;-0.0208;9.8058;-0.0102;0.0399;0.246;0.0;0.0;0.0;127.0;-14.19;-11.06;11.69;127.79;0.12;-0.75;5.0;18.238;46.035576;11.130806;;NaN;;899.999;;3 / 24;1518;2022-11-16 23:02:16:339
0.1915;-0.0287;9.7779;0.1267;-0.0208;9.8058;-0.0102;0.0399;0.246;0.0;0.0;0.0;127.0;-14.19;-11.06;11.69;127.79;0.12;-0.75;5.0;17.712;46.035576;11.130806;;NaN;;899.999;;3 / 24;1528;2022-11-16 23:02:16:349
0.1915;-0.0287;9.7779;0.1267;-0.0208;9.8058;-0.0264;0.0192;0.1871;0.0;0.0;0.0;127.0;-13.75;-11.44;11.25;127.79;0.12;-0.75;5.0;17.712;46.035576;11.130806;;NaN;;899.999;;3 / 24;1538;2022-11-16 23:02:16:359
0.1053;0.0;9.7492;0.1267;-0.0208;9.8058;-0.0264;0.0192;0.1871;0.0;0.0;0.0;127.0;-13.75;-11.44;11.25;127.79;0.12;-0.75;5.0;17.712;46.035576;11.130806;;NaN;;899.999;;3 / 24;1548;2022-11-16 23:02:16:369
0.1053;0.0;9.7492;0.1267;-0.0208;9.8058;-0.0264;0.0192;0.1871;0.0;0.0;0.0;127.0;-13.75;-11.44;11.25;127.79;0.12;-0.75;5.0;17.712;46.035576;11.130806;;NaN;;899.999;;3 / 24;1558;2022-11-16 23:02:16:379
0.1053;0.0;9.7492;0.1267;-0.0208;9.8058;-0.0264;0.0192;0.1871;0.0;0.0;0.0;127.0;-13.75;-11.44;11.25;127.79;0.12;-0.75;5.0;17.712;46.035576;11.130806;;NaN;;899.999;;3 / 24;1568;2022-11-16 23:02:16:389
0.1053;0.0;9.7492;0.119;-0.02;9.8059;-0.0264;0.0192;0.1871;0.0;0.0;0.0;127.0;-13.75;-11.44;11.25;127.79;0.12;-0.75;5.0;17.712;46.035576;11.130806;;NaN;;899.999;;3 / 24;1577;2022-11-16 23:02:16:398
0.1053;0.0;9.7492;0.119;-0.02;9.8059;-0.0264;0.0192;0.1871;0.0;0.0;0.0;127.0;-13.75;-11.44;11.25;127.79;0.12;-0.75;5.0;17.712;46.035576;11.130806;;NaN;;899.999;;3 / 24;1587;2022-11-16 23:02:16:408
0.1053;0.0;9.7492;0.119;-0.02;9.8059;0.0268;0.0195;0.1478;0.0;0.0;0.0;127.0;-13.75;-11.44;11.25;127.79;0.12;-0.75;5.0;17.712;46.035576;11.130806;;NaN;;899.999;;3 / 24;1598;2022-11-16 23:02:16:419
0.1053;0.0;9.7492;0.119;-0.02;9.8059;0.0268;0.0195;0.1478;0.0;0.0;0.0;127.0;-13.62;-11.81;11.56;130.25;0.12;-0.7;5.0;17.712;46.035576;11.130806;;NaN;;899.999;;3 / 24;1608;2022-11-16 23:02:16:429
0.1437;0.0096;9.8067;0.119;-0.02;9.8059;0.0268;0.0195;0.1478;0.0012;0.0086;-0.0782;127.0;-13.62;-11.81;11.56;130.25;0.12;-0.7;5.0;17.712;46.035576;11.130806;;NaN;;899.999;;3 / 24;1618;2022-11-16 23:02:16:439
0.1437;0.0096;9.8067;0.119;-0.02;9.8059;0.0268;0.0195;0.1478;0.0012;0.0086;-0.0782;127.0;-13.62;-11.81;11.56;130.25;0.12;-0.7;5.0;17.712;46.035576;11.130806;;NaN;;899.999;;3 / 24;1628;2022-11-16 23:02:16:449
0.1437;0.0096;9.8067;0.1225;-0.0199;9.8058;0.0268;0.0195;0.1478;0.0012;0.0086;-0.0782;127.0;-13.62;-11.81;11.56;130.25;0.12;-0.7;5.0;17.712;46.035576;11.130806;;NaN;;899.999;;3 / 24;1638;2022-11-16 23:02:16:459
0.1437;0.0096;9.8067;0.1225;-0.0199;9.8058;0.0268;0.0195;0.1478;0.0012;0.0086;-0.0782;127.0;-13.62;-11.81;11.56;130.25;0.12;-0.7;5.0;17.712;46.035576;11.130806;;NaN;;899.999;;3 / 24;1648;2022-11-16 23:02:16:469
0.1437;0.0096;9.8067;0.1225;-0.0199;9.8058;0.0543;0.0101;0.2557;0.0012;0.0086;-0.0782;127.0;-13.62;-11.81;11.56;130.25;0.12;-0.7;5.0;17.712;46.035576;11.130806;;NaN;;899.999;;3 / 24;1658;2022-11-16 23:02:16:479
0.1437;0.0096;9.8067;0.1225;-0.0199;9.8058;0.0543;0.0101;0.2557;0.0012;0.0086;-0.0782;127.0;-13.62;-11.81;11.56;130.25;0.12;-0.7;5.0;17.712;46.035576;11.130806;;NaN;;899.999;;3 / 24;1668;2022-11-16 23:02:16:489
0.1628;0.0;9.7683;0.1225;-0.0199;9.8058;0.0543;0.0101;0.2557;0.0012;0.0086;-0.0782;127.0;-14.0;-11.06;11.06;130.25;0.12;-0.7;5.0;17.712;46.035576;11.130806;;NaN;;899.999;;3 / 24;1678;2022-11-16 23:02:16:499
0.1628;0.0;9.7683;0.1225;-0.0199;9.8058;0.0543;0.0101;0.2557;0.0012;0.0086;-0.0782;127.0;-14.0;-11.06;11.06;130.25;0.12;-0.7;5.0;17.712;46.035576;11.130806;;NaN;;899.999;;3 / 24;1688;2022-11-16 23:02:16:509
0.1628;0.0;9.7683;0.1233;-0.0188;9.8058;0.0543;0.0101;0.2557;0.0012;0.0086;-0.0782;127.0;-14.0;-11.06;11.06;130.25;0.12;-0.7;5.0;17.712;46.035576;11.130806;;NaN;;899.999;;3 / 24;1698;2022-11-16 23:02:16:519
0.1628;0.0;9.7683;0.1233;-0.0188;9.8058;0.0543;0.0101;0.2557;0.0012;0.0086;-0.0782;127.0;-14.0;-11.06;11.06;130.25;0.12;-0.7;5.0;17.712;46.035576;11.130806;;NaN;;899.999;;3 / 24;1708;2022-11-16 23:02:16:529
0.1628;0.0;9.7683;0.1233;-0.0188;9.8058;0.0543;0.0101;0.2557;0.0012;0.0086;-0.0782;127.0;-14.0;-11.06;11.06;130.25;0.12;-0.7;5.0;17.712;46.035576;11.130806;;NaN;;899.999;;3 / 24;1718;2022-11-16 23:02:16:539
0.1628;0.0;9.7683;0.1233;-0.0188;9.8058;0.0543;0.0101;0.2557;0.0012;0.0086;-0.0782;127.0;-14.0;-11.06;11.06;130.25;0.12;-0.7;5.0;17.712;46.035576;11.130806;;NaN;;899.999;;3 / 24;1728;2022-11-16 23:02:16:549
0.1628;0.0;9.7683;0.1233;-0.0188;9.8058;0.0049;-0.018;0.2557;0.0012;0.0086;-0.0782;127.0;-14.0;-11.06;11.06;130.25;0.12;-0.7;5.0;17.712;46.035576;11.130806;;NaN;;899.999;;3 / 24;1738;2022-11-16 23:02:16:559
0.1149;-0.067;9.8067;0.1233;-0.0188;9.8058;0.0049;-0.018;0.2557;0.0;0.0;-0.1112;127.0;-13.5;-11.87;11.88;132.33;0.11;-0.72;5.0;17.712;46.035576;11.130806;;NaN;;899.999;;3 / 24;1748;2022-11-16 23:02:16:569
0.1149;-0.067;9.8067;0.1262;-0.0215;9.8058;0.0049;-0.018;0.2557;0.0;0.0;-0.1112;127.0;-13.5;-11.87;11.88;132.33;0.11;-0.72;5.0;17.712;46.035576;11.130806;;NaN;;899.999;;3 / 24;1758;2022-11-16 23:02:16:579
0.1149;-0.067;9.8067;0.1262;-0.0215;9.8058;0.0049;-0.018;0.2557;0.0;0.0;-0.1112;127.0;-13.5;-11.87;11.88;132.33;0.11;-0.72;5.0;17.712;46.035576;11.130806;;NaN;;899.999;;3 / 24;1768;2022-11-16 23:02:16:589
0.1149;-0.067;9.8067;0.1262;-0.0215;9.8058;0.0049;-0.018;0.2557;0.0;0.0;-0.1112;127.0;-13.5;-11.87;11.88;132.33;0.11;-0.72;5.0;17.712;46.035576;11.130806;;NaN;;899.999;;3 / 24;1778;2022-11-16 23:02:16:599
0.1149;-0.067;9.8067;0.1262;-0.0215;9.8058;0.0049;-0.018;0.2557;0.0;0.0;-0.1112;127.0;-13.5;-11.87;11.88;132.33;0.11;-0.72;5.0;17.712;46.035576;11.130806;;NaN;;899.999;;3 / 24;1788;2022-11-16 23:02:16:609
0.1149;-0.067;9.8067;0.1262;-0.0215;9.8058;0.0094;-0.0072;0.2067;0.0;0.0;-0.1112;127.0;-13.5;-11.87;11.88;132.33;0.11;-0.72;5.0;17.712;46.035576;11.130806;;NaN;;899.999;;3 / 24;1798;2022-11-16 23:02:16:619
0.0958;0.0;9.8354;0.1262;-0.0215;9.8058;0.0094;-0.0072;0.2067;0.0;0.0;-0.1112;127.0;-13.5;-11.87;11.88;132.33;0.11;-0.72;5.0;17.712;46.035576;11.130806;;NaN;;899.999;;3 / 24;1808;2022-11-16 23:02:16:629
0.0958;0.0;9.8354;0.1286;-0.0222;9.8057;0.0094;-0.0072;0.2067;0.0;0.0;-0.1112;127.0;-13.69;-11.87;11.38;132.33;0.11;-0.72;5.0;17.712;46.035576;11.130806;;NaN;;899.999;;3 / 24;1818;2022-11-16 23:02:16:639
0.0958;0.0;9.8354;0.1286;-0.0222;9.8057;0.0094;-0.0072;0.2067;0.0;0.0;-0.1112;127.0;-13.69;-11.87;11.38;132.33;0.11;-0.72;5.0;17.712;46.035576;11.130806;;NaN;;899.999;;3 / 24;1828;2022-11-16 23:02:16:649
0.0958;0.0;9.8354;0.1286;-0.0222;9.8057;0.0094;-0.0072;0.2067;0.0;0.0;-0.1112;127.0;-13.69;-11.87;11.38;132.33;0.11;-0.72;5.0;17.712;46.035576;11.130806;;NaN;;899.999;;3 / 24;1838;2022-11-16 23:02:16:659
0.0958;0.0;9.8354;0.1286;-0.0222;9.8057;0.0094;-0.0072;0.2067;0.0;0.0;-0.1112;127.0;-13.69;-11.87;11.38;132.33;0.11;-0.72;5.0;17.654;46.035576;11.130806;;NaN;;899.999;;3 / 24;1848;2022-11-16 23:02:16:669
0.0958;0.0;9.8354;0.1286;-0.0222;9.8057;0.0286;0.0388;0.1969;0.0;0.0;-0.1112;127.0;-13.69;-11.87;11.38;132.33;0.11;-0.72;5.0;17.654;46.035576;11.130806;;NaN;;899.999;;3 / 24;1858;2022-11-16 23:02:16:679
0.0958;0.0;9.8354;0.1286;-0.0222;9.8057;0.0286;0.0388;0.1969;0.0;0.0;-0.1112;124.0;-13.69;-11.87;11.38;132.33;0.11;-0.72;5.0;17.654;46.035576;11.130806;;NaN;;899.999;;3 / 24;1868;2022-11-16 23:02:16:689
0.1245;-0.0287;9.7683;0.1285;-0.0184;9.8057;0.0286;0.0388;0.1969;0.0;0.0;0.0;124.0;-13.69;-11.87;11.38;132.33;0.11;-0.72;5.0;17.654;46.035576;11.130806;;NaN;;899.999;;3 / 24;1878;2022-11-16 23:02:16:699
0.1245;-0.0287;9.7683;0.1285;-0.0184;9.8057;0.0286;0.0388;0.1969;0.0;0.0;0.0;124.0;-13.81;-11.19;11.06;127.82;0.11;-0.75;5.0;17.654;46.035576;11.130806;;NaN;;899.999;;3 / 24;1888;2022-11-16 23:02:16:709
0.1245;-0.0287;9.7683;0.1285;-0.0184;9.8057;0.0286;0.0388;0.1969;0.0;0.0;0.0;124.0;-13.81;-11.19;11.06;127.82;0.11;-0.75;5.0;17.654;46.035576;11.130806;;NaN;;899.999;;3 / 24;1898;2022-11-16 23:02:16:719
0.1245;-0.0287;9.7683;0.1285;-0.0184;9.8057;0.0286;0.0388;0.1969;0.0;0.0;0.0;124.0;-13.81;-11.19;11.06;127.82;0.11;-0.75;5.0;17.654;46.035576;11.130806;;NaN;;899.999;;3 / 24;1908;2022-11-16 23:02:16:729
0.1245;-0.0287;9.7683;0.1285;-0.0184;9.8057;-0.0019;0.0089;0.2166;0.0;0.0;0.0;124.0;-13.81;-11.19;11.06;127.82;0.11;-0.75;5.0;17.654;46.035576;11.130806;;NaN;;899.999;;3 / 24;1918;2022-11-16 23:02:16:739
0.1245;-0.0287;9.7683;0.1285;-0.0184;9.8057;-0.0019;0.0089;0.2166;0.0;0.0;0.0;124.0;-13.81;-11.19;11.06;127.82;0.11;-0.75;5.0;17.654;46.035576;11.130806;;NaN;;899.999;;3 / 24;1928;2022-11-16 23:02:16:749
0.1053;-0.0383;9.7588;0.1282;-0.02;9.8057;-0.0019;0.0089;0.2166;0.0;0.0;0.0;124.0;-13.81;-11.19;11.06;127.82;0.11;-0.75;5.0;17.654;46.035576;11.130806;;NaN;;899.999;;3 / 24;1938;2022-11-16 23:02:16:759
0.1053;-0.0383;9.7588;0.1282;-0.02;9.8057;-0.0019;0.0089;0.2166;0.0;0.0;0.0;124.0;-13.81;-11.19;11.06;127.82;0.11;-0.75;5.0;17.654;46.035576;11.130806;;NaN;;899.999;;3 / 24;1948;2022-11-16 23:02:16:769
0.1053;-0.0383;9.7588;0.1282;-0.02;9.8057;-0.0019;0.0089;0.2166;0.0;0.0;0.0;124.0;-13.81;-11.31;11.88;127.82;0.11;-0.75;5.0;17.654;46.035576;11.130806;;NaN;;899.999;;3 / 24;1958;2022-11-16 23:02:16:779
0.1053;-0.0383;9.7588;0.1282;-0.02;9.8057;-0.0019;0.0089;0.2166;0.0;0.0;0.0;124.0;-13.81;-11.31;11.88;127.82;0.11;-0.75;5.0;17.654;46.035576;11.130806;;NaN;;899.999;;3 / 24;1968;2022-11-16 23:02:16:789
0.1053;-0.0383;9.7588;0.1282;-0.02;9.8057;0.0251;-0.0267;0.197;0.0;0.0;0.0;124.0;-13.81;-11.31;11.88;127.82;0.11;-0.75;5.0;17.654;46.035576;11.130806;;NaN;;899.999;;3 / 24;1978;2022-11-16 23:02:16:799
0.1053;-0.0383;9.7588;0.1282;-0.02;9.8057;0.0251;-0.0267;0.197;0.0;0.0;0.0;124.0;-13.81;-11.31;11.88;127.82;0.11;-0.75;5.0;17.654;46.035576;11.130806;;NaN;;899.999;;3 / 24;1988;2022-11-16 23:02:16:809
0.1053;-0.0383;9.7588;0.1305;-0.023;9.8057;0.0251;-0.0267;0.197;0.0;0.0;0.0;124.0;-13.81;-11.31;11.88;127.82;0.11;-0.75;5.0;17.654;46.035576;11.130806;;NaN;;899.999;;3 / 24;1998;2022-11-16 23:02:16:819
0.0958;0.0;9.7588;0.1305;-0.023;9.8057;0.0251;-0.0267;0.197;0.0;0.0;0.0;124.0;-13.81;-11.31;11.88;127.82;0.11;-0.75;5.0;17.654;46.035576;11.130806;;NaN;;899.999;;3 / 24;2008;2022-11-16 23:02:16:829
0.0958;0.0;9.7588;0.1305;-0.023;9.8057;0.0251;-0.0267;0.197;0.0;0.0;0.0;124.0;-13.81;-11.31;11.88;127.82;0.11;-0.75;5.0;17.654;46.035576;11.130806;;NaN;;899.999;;3 / 24;2018;2022-11-16 23:02:16:839
0.0958;0.0;9.7588;0.1305;-0.023;9.8057;0.0251;-0.0267;0.197;0.0;0.0;0.0;124.0;-13.69;-11.5;12.31;127.77;0.13;-0.76;5.0;17.654;46.035576;11.130806;;NaN;;899.999;;3 / 24;2028;2022-11-16 23:02:16:849
0.0958;0.0;9.7588;0.1305;-0.023;9.8057;0.0075;-0.0068;0.2656;0.0;0.0;0.0;124.0;-13.69;-11.5;12.31;127.77;0.13;-0.76;5.0;17.654;46.035576;11.130806;;NaN;;899.999;;3 / 24;2038;2022-11-16 23:02:16:859
0.0958;0.0;9.7588;0.1305;-0.023;9.8057;0.0075;-0.0068;0.2656;0.0;0.0;0.0;124.0;-13.69;-11.5;12.31;127.77;0.13;-0.76;5.0;17.654;46.035576;11.130806;;NaN;;899.999;;3 / 24;2048;2022-11-16 23:02:16:869
0.0958;0.0;9.7588;0.1313;-0.0222;9.8057;0.0075;-0.0068;0.2656;0.0;0.0;0.0;124.0;-13.69;-11.5;12.31;127.77;0.13;-0.76;5.0;17.654;46.035576;11.130806;;NaN;;899.999;;3 / 24;2058;2022-11-16 23:02:16:879
0.1437;-0.0287;9.7971;0.1313;-0.0222;9.8057;0.0075;-0.0068;0.2656;0.0;0.0;0.0;124.0;-13.69;-11.5;12.31;127.77;0.13;-0.76;5.0;17.654;46.035576;11.130806;;NaN;;899.999;;3 / 24;2068;2022-11-16 23:02:16:889
0.1437;-0.0287;9.7971;0.1313;-0.0222;9.8057;0.0075;-0.0068;0.2656;0.0;0.0;0.0;124.0;-13.69;-11.5;12.31;127.77;0.13;-0.76;5.0;17.654;46.035576;11.130806;;NaN;;899.999;;3 / 24;2078;2022-11-16 23:02:16:899
0.1437;-0.0287;9.7971;0.1313;-0.0222;9.8057;0.0075;-0.0068;0.2656;0.0;0.0;0.0;124.0;-13.69;-11.5;12.31;127.77;0.13;-0.76;5.0;17.654;46.035576;11.130806;;NaN;;899.999;;3 / 24;2088;2022-11-16 23:02:16:909
0.1437;-0.0287;9.7971;0.1313;-0.0222;9.8057;0.0213;0.0698;0.1382;0.0;0.0;0.0;124.0;-14.0;-10.87;11.44;127.77;0.13;-0.76;5.0;17.654;46.035576;11.130806;;NaN;;899.999;;3 / 24;2098;2022-11-16 23:02:16:919
0.1437;-0.0287;9.7971;0.1313;-0.0222;9.8057;0.0213;0.0698;0.1382;0.0;0.0;0.0;124.0;-14.0;-10.87;11.44;127.77;0.13;-0.76;5.0;17.654;46.035576;11.130806;;NaN;;899.999;;3 / 24;2108;2022-11-16 23:02:16:929
0.1437;-0.0287;9.7971;0.1366;-0.0203;9.8056;0.0213;0.0698;0.1382;0.0;0.0;0.0;124.0;-14.0;-10.87;11.44;127.77;0.13;-0.76;5.0;17.654;46.035576;11.130806;;NaN;;899.999;;3 / 24;2118;2022-11-16 23:02:16:939
0.1437;-0.0287;9.7971;0.1366;-0.0203;9.8056;0.0213;0.0698;0.1382;0.0;0.0;0.0;124.0;-14.0;-10.87;11.44;127.77;0.13;-0.76;5.0;17.654;46.035576;11.130806;;NaN;;899.999;;3 / 24;2128;2022-11-16 23:02:16:949
0.0862;0.0287;9.7683;0.1366;-0.0203;9.8056;0.0213;0.0698;0.1382;0.0049;0.0061;0.1552;124.0;-14.0;-10.87;11.44;127.77;0.13;-0.76;5.0;17.654;46.035576;11.130806;;NaN;;899.999;;3 / 24;2137;2022-11-16 23:02:16:958
0.0862;0.0287;9.7683;0.1366;-0.0203;9.8056;0.0213;0.0698;0.1382;0.0049;0.0061;0.1552;124.0;-14.0;-10.87;11.44;127.77;0.13;-0.76;5.0;17.654;46.035576;11.130806;;NaN;;899.999;;3 / 24;2148;2022-11-16 23:02:16:969
0.0862;0.0287;9.7683;0.1366;-0.0203;9.8056;-0.0174;-4.0E-4;0.2363;0.0049;0.0061;0.1552;124.0;-14.0;-10.87;11.44;127.77;0.13;-0.76;5.0;17.654;46.035576;11.130806;;NaN;;899.999;;3 / 24;2158;2022-11-16 23:02:16:979
0.0862;0.0287;9.7683;0.1366;-0.0203;9.8056;-0.0174;-4.0E-4;0.2363;0.0049;0.0061;0.1552;124.0;-14.62;-11.5;11.06;125.92;0.12;-0.8;5.0;17.654;46.035576;11.130806;;NaN;;899.999;;3 / 24;2168;2022-11-16 23:02:16:989
0.0862;0.0287;9.7683;0.135;-0.0188;9.8057;-0.0174;-4.0E-4;0.2363;0.0049;0.0061;0.1552;124.0;-14.62;-11.5;11.06;125.92;0.12;-0.8;5.0;17.398;46.035576;11.130806;;NaN;;899.999;;3 / 24;2177;2022-11-16 23:02:16:998
0.0862;0.0287;9.7683;0.135;-0.0188;9.8057;-0.0174;-4.0E-4;0.2363;0.0049;0.0061;0.1552;124.0;-14.62;-11.5;11.06;125.92;0.12;-0.8;5.0;17.398;46.035576;11.130806;;NaN;;899.999;;3 / 24;2188;2022-11-16 23:02:17:009
0.1724;0.0287;9.7588;0.135;-0.0188;9.8057;-0.0174;-4.0E-4;0.2363;0.0049;0.0061;0.1552;124.0;-14.62;-11.5;11.06;125.92;0.12;-0.8;5.0;17.398;46.035576;11.130806;;NaN;;899.999;;3 / 24;2198;2022-11-16 23:02:17:019
0.1724;0.0287;9.7588;0.135;-0.0188;9.8057;-0.0174;-4.0E-4;0.2363;0.0049;0.0061;0.1552;124.0;-14.62;-11.5;11.06;125.92;0.12;-0.8;5.0;17.398;46.035576;11.130806;;NaN;;899.999;;3 / 24;2208;2022-11-16 23:02:17:029
0.1724;0.0287;9.7588;0.135;-0.0188;9.8057;-0.0095;0.0236;0.2167;0.0049;0.0061;0.1552;124.0;-14.62;-11.5;11.06;125.92;0.12;-0.8;5.0;17.398;46.035576;11.130806;;NaN;;899.999;;3 / 24;2218;2022-11-16 23:02:17:039
0.1724;0.0287;9.7588;0.135;-0.0188;9.8057;-0.0095;0.0236;0.2167;0.0049;0.0061;0.1552;124.0;-14.62;-11.5;11.06;125.92;0.12;-0.8;5.0;17.398;46.035576;11.130806;;NaN;;899.999;;3 / 24;2228;2022-11-16 23:02:17:049
0.1724;0.0287;9.7588;0.1351;-0.0122;9.8057;-0.0095;0.0236;0.2167;0.0049;0.0061;0.1552;124.0;-14.81;-11.69;9.5;125.92;0.12;-0.8;5.0;17.398;46.035576;11.130806;;NaN;;899.999;;3 / 24;2238;2022-11-16 23:02:17:059
0.1724;0.0287;9.7588;0.1351;-0.0122;9.8057;-0.0095;0.0236;0.2167;0.0049;0.0061;0.1552;124.0;-14.81;-11.69;9.5;125.92;0.12;-0.8;5.0;17.398;46.035576;11.130806;;NaN;;899.999;;3 / 24;2248;2022-11-16 23:02:17:069
0.1724;0.0287;9.7588;0.1351;-0.0122;9.8057;-0.0095;0.0236;0.2167;0.0049;0.0061;0.1552;124.0;-14.81;-11.69;9.5;125.92;0.12;-0.8;5.0;17.398;46.035576;11.130806;;NaN;;899.999;;3 / 24;2258;2022-11-16 23:02:17:079
0.1437;-0.067;9.8162;0.1351;-0.0122;9.8057;-0.0095;0.0236;0.2167;0.0049;0.0086;0.1112;124.0;-14.81;-11.69;9.5;125.92;0.12;-0.8;5.0;17.398;46.035576;11.130806;;NaN;;899.999;;3 / 24;2268;2022-11-16 23:02:17:089
0.1437;-0.067;9.8162;0.1351;-0.0122;9.8057;-0.0095;0.0236;0.2167;0.0049;0.0086;0.1112;124.0;-14.81;-11.69;9.5;125.92;0.12;-0.8;5.0;17.398;46.035576;11.130806;;NaN;;899.999;;3 / 24;2278;2022-11-16 23:02:17:099
0.1437;-0.067;9.8162;0.1351;-0.0122;9.8057;-0.0095;0.0236;0.2167;0.0049;0.0086;0.1112;124.0;-14.81;-11.69;9.5;125.92;0.12;-0.8;5.0;17.398;46.035576;11.130806;;NaN;;899.999;;3 / 24;2288;2022-11-16 23:02:17:109
0.1437;-0.067;9.8162;0.1306;-0.0068;9.8057;0.0164;0.0068;0.2362;0.0049;0.0086;0.1112;124.0;-14.81;-11.69;9.5;125.92;0.12;-0.8;5.0;17.398;46.035576;11.130806;;NaN;;899.999;;3 / 24;2298;2022-11-16 23:02:17:119
0.1437;-0.067;9.8162;0.1306;-0.0068;9.8057;0.0164;0.0068;0.2362;0.0049;0.0086;0.1112;124.0;-14.37;-11.81;10.94;130.29;0.04;-0.76;5.0;17.398;46.035576;11.130806;;NaN;;899.999;;3 / 24;2307;2022-11-16 23:02:17:128
0.1437;-0.067;9.8162;0.1306;-0.0068;9.8057;0.0164;0.0068;0.2362;0.0049;0.0086;0.1112;124.0;-14.37;-11.81;10.94;130.29;0.04;-0.76;5.0;17.398;46.035576;11.130806;;NaN;;899.999;;3 / 24;2318;2022-11-16 23:02:17:139
0.1628;0.0;9.7396;0.1306;-0.0068;9.8057;0.0164;0.0068;0.2362;0.0049;0.0086;0.1112;124.0;-14.37;-11.81;10.94;130.29;0.04;-0.76;5.0;17.398;46.035576;11.130806;;NaN;;899.999;;3 / 24;2328;2022-11-16 23:02:17:149
0.1628;0.0;9.7396;0.1306;-0.0068;9.8057;0.0164;0.0068;0.2362;0.0049;0.0086;0.1112;124.0;-14.37;-11.81;10.94;130.29;0.04;-0.76;5.0;17.398;46.035576;11.130806;;NaN;;899.999;;3 / 24;2338;2022-11-16 23:02:17:159
0.1628;0.0;9.7396;0.1306;-0.0068;9.8057;0.0164;0.0068;0.2362;0.0049;0.0086;0.1112;124.0;-14.37;-11.81;10.94;130.29;0.04;-0.76;5.0;17.398;46.035576;11.130806;;NaN;;899.999;;3 / 24;2348;2022-11-16 23:02:17:169
0.1628;0.0;9.7396;0.1305;-0.0085;9.8057;0.0165;-0.0307;0.2068;0.0049;0.0086;0.1112;124.0;-14.37;-11.81;10.94;130.29;0.04;-0.76;5.0;17.398;46.035576;11.130806;;NaN;;899.999;;3 / 24;2358;2022-11-16 23:02:17:179
0.1628;0.0;9.7396;0.1305;-0.0085;9.8057;0.0165;-0.0307;0.2068;0.0049;0.0086;0.1112;124.0;-14.37;-11.81;10.94;130.29;0.04;-0.76;5.0;17.398;46.035576;11.130806;;NaN;;899.999;;3 / 24;2368;2022-11-16 23:02:17:189
0.1628;0.0;9.7396;0.1305;-0.0085;9.8057;0.0165;-0.0307;0.2068;0.0049;0.0086;0.1112;124.0;-14.06;-11.62;11.25;130.29;0.04;-0.76;5.0;17.398;46.035576;11.130806;;NaN;;899.999;;3 / 24;2378;2022-11-16 23:02:17:199
0.1628;0.0;9.7396;0.1305;-0.0085;9.8057;0.0165;-0.0307;0.2068;0.0049;0.0086;0.1112;124.0;-14.06;-11.62;11.25;130.29;0.04;-0.76;5.0;17.398;46.035576;11.130806;;NaN;;899.999;;3 / 24;2387;2022-11-16 23:02:17:208
0.1245;0.0096;9.7779;0.1305;-0.0085;9.8057;0.0165;-0.0307;0.2068;0.0;0.0;0.0;124.0;-14.06;-11.62;11.25;130.29;0.04;-0.76;5.0;17.398;46.035576;11.130806;;NaN;;899.999;;3 / 24;2398;2022-11-16 23:02:17:219
0.1245;0.0096;9.7779;0.1305;-0.0085;9.8057;0.0165;-0.0307;0.2068;0.0;0.0;0.0;124.0;-14.06;-11.62;11.25;130.29;0.04;-0.76;5.0;17.398;46.035576;11.130806;;NaN;;899.999;;3 / 24;2408;2022-11-16 23:02:17:229
0.1245;0.0096;9.7779;0.1348;-0.0107;9.8057;-0.0073;-0.0186;0.1774;0.0;0.0;0.0;124.0;-14.06;-11.62;11.25;130.29;0.04;-0.76;5.0;17.398;46.035576;11.130806;;NaN;;899.999;;3 / 24;2418;2022-11-16 23:02:17:239
0.1245;0.0096;9.7779;0.1348;-0.0107;9.8057;-0.0073;-0.0186;0.1774;0.0;0.0;0.0;124.0;-14.06;-11.62;11.25;130.29;0.04;-0.76;5.0;17.398;46.035576;11.130806;;NaN;;899.999;;3 / 24;2428;2022-11-16 23:02:17:249
0.1245;0.0096;9.7779;0.1348;-0.0107;9.8057;-0.0073;-0.0186;0.1774;0.0;0.0;0.0;124.0;-14.06;-11.62;11.25;130.29;0.04;-0.76;5.0;17.398;46.035576;11.130806;;NaN;;899.999;;3 / 24;2438;2022-11-16 23:02:17:259
0.1245;0.0096;9.7779;0.1348;-0.0107;9.8057;-0.0073;-0.0186;0.1774;0.0;0.0;0.0;124.0;-15.94;-11.0;9.94;124.26;0.06;-0.79;5.0;17.398;46.035576;11.130806;;NaN;;899.999;;3 / 24;2448;2022-11-16 23:02:17:269
0.1915;-0.0575;9.7971;0.1348;-0.0107;9.8057;-0.0073;-0.0186;0.1774;0.0;0.0;0.0;124.0;-15.94;-11.0;9.94;124.26;0.06;-0.79;5.0;17.398;46.035576;11.130806;;NaN;;899.999;;3 / 24;2458;2022-11-16 23:02:17:279
0.1915;-0.0575;9.7971;0.1348;-0.0107;9.8057;-0.0073;-0.0186;0.1774;0.0;0.0;0.0;124.0;-15.94;-11.0;9.94;124.26;0.06;-0.79;5.0;17.398;46.035576;11.130806;;NaN;;899.999;;3 / 24;2468;2022-11-16 23:02:17:289
0.1915;-0.0575;9.7971;0.1371;-0.0122;9.8056;-0.0073;-0.0186;0.1774;0.0;0.0;0.0;124.0;-15.94;-11.0;9.94;124.26;0.06;-0.79;5.0;17.398;46.035576;11.130806;;NaN;;899.999;;3 / 24;2478;2022-11-16 23:02:17:299
0.1915;-0.0575;9.7971;0.1371;-0.0122;9.8056;-0.0292;-0.0171;0.1676;0.0;0.0;0.0;124.0;-15.94;-11.0;9.94;124.26;0.06;-0.79;5.0;17.398;46.035576;11.130806;;NaN;;899.999;;3 / 24;2488;2022-11-16 23:02:17:309
0.1915;-0.0575;9.7971;0.1371;-0.0122;9.8056;-0.0292;-0.0171;0.1676;0.0;0.0;0.0;124.0;-15.94;-11.0;9.94;124.26;0.06;-0.79;5.0;17.762;46.035576;11.130806;;NaN;;899.999;;3 / 24;2497;2022-11-16 23:02:17:318
0.1915;-0.0575;9.7971;0.1371;-0.0122;9.8056;-0.0292;-0.0171;0.1676;0.0;0.0;0.0;124.0;-15.94;-11.0;9.94;124.26;0.06;-0.79;5.0;17.762;46.035576;11.130806;;NaN;;899.999;;3 / 24;2508;2022-11-16 23:02:17:329
0.1915;-0.0575;9.7971;0.1371;-0.0122;9.8056;-0.0292;-0.0171;0.1676;0.0;0.0;0.0;124.0;-15.81;-10.69;8.94;124.26;0.06;-0.79;5.0;17.762;46.035576;11.130806;;NaN;;899.999;;3 / 24;2518;2022-11-16 23:02:17:339
0.1437;0.0383;9.7588;0.1371;-0.0122;9.8056;-0.0292;-0.0171;0.1676;0.0073;0.0159;0.2346;124.0;-15.81;-10.69;8.94;124.26;0.06;-0.79;5.0;17.762;46.035576;11.130806;;NaN;;899.999;;3 / 24;2528;2022-11-16 23:02:17:349
0.1437;0.0383;9.7588;0.1371;-0.0122;9.8056;-0.0292;-0.0171;0.1676;0.0073;0.0159;0.2346;124.0;-15.81;-10.69;8.94;124.26;0.06;-0.79;5.0;17.762;46.035576;11.130806;;NaN;;899.999;;3 / 24;2538;2022-11-16 23:02:17:359
0.1437;0.0383;9.7588;0.1399;-0.0092;9.8056;-0.0292;-0.0171;0.1676;0.0073;0.0159;0.2346;124.0;-15.81;-10.69;8.94;124.26;0.06;-0.79;5.0;17.762;46.035576;11.130806;;NaN;;899.999;;3 / 24;2548;2022-11-16 23:02:17:369
0.1437;0.0383;9.7588;0.1399;-0.0092;9.8056;-0.0022;0.0092;0.2265;0.0073;0.0159;0.2346;124.0;-15.81;-10.69;8.94;124.26;0.06;-0.79;5.0;17.762;46.035576;11.130806;;NaN;;899.999;;3 / 24;2558;2022-11-16 23:02:17:379
0.1437;0.0383;9.7588;0.1399;-0.0092;9.8056;-0.0022;0.0092;0.2265;0.0073;0.0159;0.2346;124.0;-15.81;-10.69;8.94;124.26;0.06;-0.79;5.0;17.762;46.035576;11.130806;;NaN;;899.999;;3 / 24;2567;2022-11-16 23:02:17:388
0.1437;0.0383;9.7588;0.1399;-0.0092;9.8056;-0.0022;0.0092;0.2265;0.0073;0.0159;0.2346;124.0;-15.81;-10.69;8.94;124.26;0.06;-0.79;5.0;17.762;46.035576;11.130806;;NaN;;899.999;;3 / 24;2578;2022-11-16 23:02:17:399
0.1149;-0.0096;9.7588;0.1399;-0.0092;9.8056;-0.0022;0.0092;0.2265;0.0073;0.0159;0.2346;124.0;-16.12;-10.62;8.06;124.3;0.05;-0.82;5.0;17.762;46.035576;11.130806;;NaN;;899.999;;3 / 24;2588;2022-11-16 23:02:17:409
0.1149;-0.0096;9.7588;0.1402;-0.008;9.8056;-0.0022;0.0092;0.2265;0.0073;0.0159;0.2346;124.0;-16.12;-10.62;8.06;124.3;0.05;-0.82;5.0;17.762;46.035576;11.130806;;NaN;;899.999;;3 / 24;2598;2022-11-16 23:02:17:419
0.1149;-0.0096;9.7588;0.1402;-0.008;9.8056;-0.0022;0.0092;0.2265;0.0073;0.0159;0.2346;124.0;-16.12;-10.62;8.06;124.3;0.05;-0.82;5.0;17.762;46.035576;11.130806;;NaN;;899.999;;3 / 24;2608;2022-11-16 23:02:17:429
0.1149;-0.0096;9.7588;0.1402;-0.008;9.8056;0.0162;0.0068;0.2069;0.0073;0.0159;0.2346;124.0;-16.12;-10.62;8.06;124.3;0.05;-0.82;5.0;17.762;46.035576;11.130806;;NaN;;899.999;;3 / 24;2618;2022-11-16 23:02:17:439
0.1149;-0.0096;9.7588;0.1402;-0.008;9.8056;0.0162;0.0068;0.2069;0.0073;0.0159;0.2346;124.0;-16.12;-10.62;8.06;124.3;0.05;-0.82;5.0;17.762;46.035576;11.130806;;NaN;;899.999;;3 / 24;2628;2022-11-16 23:02:17:449
0.1149;-0.0096;9.7588;0.1402;-0.008;9.8056;0.0162;0.0068;0.2069;0.0073;0.0159;0.2346;124.0;-16.12;-10.62;8.06;124.3;0.05;-0.82;5.0;17.762;46.035576;11.130806;;NaN;;899.999;;3 / 24;2638;2022-11-16 23:02:17:459
0.1149;-0.0096;9.7588;0.1402;-0.008;9.8056;0.0162;0.0068;0.2069;0.0073;0.0159;0.2346;124.0;-16.12;-10.62;8.06;124.3;0.05;-0.82;5.0;17.762;46.035576;11.130806;;NaN;;899.999;;3 / 24;2648;2022-11-16 23:02:17:469
0.1628;0.0;9.7109;0.1415;-0.0065;9.8056;0.0162;0.0068;0.2069;0.0073;-0.0024;0.3311;124.0;-16.0;-11.5;8.88;124.3;0.05;-0.82;5.0;17.762;46.035576;11.130806;;NaN;;899.999;;3 / 24;2658;2022-11-16 23:02:17:479
0.1628;0.0;9.7109;0.1415;-0.0065;9.8056;0.0162;0.0068;0.2069;0.0073;-0.0024;0.3311;124.0;-16.0;-11.5;8.88;124.3;0.05;-0.82;5.0;17.762;46.035576;11.130806;;NaN;;899.999;;3 / 24;2667;2022-11-16 23:02:17:488
0.1628;0.0;9.7109;0.1415;-0.0065;9.8056;0.0063;0.0445;0.2069;0.0073;-0.0024;0.3311;124.0;-16.0;-11.5;8.88;124.3;0.05;-0.82;5.0;17.762;46.035576;11.130806;;NaN;;899.999;;3 / 24;2678;2022-11-16 23:02:17:499
0.1628;0.0;9.7109;0.1415;-0.0065;9.8056;0.0063;0.0445;0.2069;0.0073;-0.0024;0.3311;124.0;-16.0;-11.5;8.88;124.3;0.05;-0.82;5.0;17.762;46.035576;11.130806;;NaN;;899.999;;3 / 24;2687;2022-11-16 23:02:17:508
0.1628;0.0;9.7109;0.1415;-0.0065;9.8056;0.0063;0.0445;0.2069;0.0073;-0.0024;0.3311;124.0;-16.0;-11.5;8.88;124.3;0.05;-0.82;5.0;17.762;46.035576;11.130806;;NaN;;899.999;;3 / 24;2698;2022-11-16 23:02:17:519
0.1628;0.0;9.7109;0.1415;-0.0065;9.8056;0.0063;0.0445;0.2069;0.0073;-0.0024;0.3311;122.0;-16.0;-11.5;8.88;124.3;0.05;-0.82;5.0;17.762;46.035576;11.130806;;NaN;;899.999;;3 / 24;2708;2022-11-16 23:02:17:529
0.1245;0.0;9.7492;0.1392;-0.0049;9.8056;0.0063;0.0445;0.2069;0.0073;-0.0024;0.3311;122.0;-16.0;-11.5;8.88;124.3;0.05;-0.82;5.0;17.762;46.035576;11.130806;;NaN;;899.999;;3 / 24;2718;2022-11-16 23:02:17:539
0.1245;0.0;9.7492;0.1392;-0.0049;9.8056;0.0063;0.0445;0.2069;0.0073;-0.0024;0.3311;122.0;-16.56;-11.06;8.25;122.72;0.03;-0.81;5.0;17.762;46.035576;11.130806;;NaN;;899.999;;3 / 24;2728;2022-11-16 23:02:17:549
0.1245;0.0;9.7492;0.1392;-0.0049;9.8056;0.0239;0.0803;0.1677;0.0073;-0.0024;0.3311;122.0;-16.56;-11.06;8.25;122.72;0.03;-0.81;5.0;17.762;46.035576;11.130806;;NaN;;899.999;;3 / 24;2738;2022-11-16 23:02:17:559
0.1245;0.0;9.7492;0.1392;-0.0049;9.8056;0.0239;0.0803;0.1677;0.0073;-0.0024;0.3311;122.0;-16.56;-11.06;8.25;122.72;0.03;-0.81;5.0;17.762;46.035576;11.130806;;NaN;;899.999;;3 / 24;2748;2022-11-16 23:02:17:569
0.1245;0.0;9.7492;0.1392;-0.0049;9.8056;0.0239;0.0803;0.1677;0.0073;-0.0024;0.3311;122.0;-16.56;-11.06;8.25;122.72;0.03;-0.81;5.0;17.762;46.035576;11.130806;;NaN;;899.999;;3 / 24;2758;2022-11-16 23:02:17:579
0.1245;0.0;9.7492;0.1392;-0.0049;9.8056;0.0239;0.0803;0.1677;0.0073;-0.0024;0.3311;122.0;-16.56;-11.06;8.25;122.72;0.03;-0.81;5.0;17.762;46.035576;11.130806;;NaN;;899.999;;3 / 24;2768;2022-11-16 23:02:17:589
0.1245;0.0;9.7492;0.1453;-0.0046;9.8055;0.0239;0.0803;0.1677;0.0073;-0.0024;0.3311;122.0;-16.56;-11.06;8.25;122.72;0.03;-0.81;5.0;17.762;46.035576;11.130806;;NaN;;899.999;;3 / 24;2778;2022-11-16 23:02:17:599
0.2107;-0.0479;9.7971;0.1453;-0.0046;9.8055;0.0239;0.0803;0.1677;0.0318;0.0086;0.0709;122.0;-16.56;-11.06;8.25;122.72;0.03;-0.81;5.0;17.762;46.035576;11.130806;;NaN;;899.999;;3 / 24;2788;2022-11-16 23:02:17:609
0.2107;-0.0479;9.7971;0.1453;-0.0046;9.8055;0.0017;-0.0895;0.2266;0.0318;0.0086;0.0709;122.0;-15.19;-11.62;9.88;122.72;0.03;-0.81;5.0;17.762;46.035576;11.130806;;NaN;;899.999;;3 / 24;2798;2022-11-16 23:02:17:619
0.2107;-0.0479;9.7971;0.1453;-0.0046;9.8055;0.0017;-0.0895;0.2266;0.0318;0.0086;0.0709;122.0;-15.19;-11.62;9.88;122.72;0.03;-0.81;5.0;17.762;46.035576;11.130806;;NaN;;899.999;;3 / 24;2808;2022-11-16 23:02:17:629
0.2107;-0.0479;9.7971;0.1453;-0.0046;9.8055;0.0017;-0.0895;0.2266;0.0318;0.0086;0.0709;122.0;-15.19;-11.62;9.88;122.72;0.03;-0.81;5.0;17.762;46.035576;11.130806;;NaN;;899.999;;3 / 24;2818;2022-11-16 23:02:17:639
0.2107;-0.0479;9.7971;0.1453;-0.0046;9.8055;0.0017;-0.0895;0.2266;0.0318;0.0086;0.0709;122.0;-15.19;-11.62;9.88;122.72;0.03;-0.81;5.0;17.814;46.035576;11.130806;;NaN;;899.999;;3 / 24;2828;2022-11-16 23:02:17:649
0.2107;-0.0479;9.7971;0.1461;-0.0111;9.8055;0.0017;-0.0895;0.2266;0.0318;0.0086;0.0709;122.0;-15.19;-11.62;9.88;122.72;0.03;-0.81;5.0;17.814;46.035576;11.130806;;NaN;;899.999;;3 / 24;2838;2022-11-16 23:02:17:659
0.0958;0.0192;9.7588;0.1461;-0.0111;9.8055;0.0017;-0.0895;0.2266;0.0318;0.0086;0.0709;122.0;-15.19;-11.62;9.88;122.72;0.03;-0.81;5.0;17.814;46.035576;11.130806;;NaN;;899.999;;3 / 24;2848;2022-11-16 23:02:17:669
0.0958;0.0192;9.7588;0.1461;-0.0111;9.8055;-0.0368;0.0096;0.1383;0.0318;0.0086;0.0709;122.0;-15.19;-11.62;9.88;122.72;0.03;-0.81;5.0;17.814;46.035576;11.130806;;NaN;;899.999;;3 / 24;2858;2022-11-16 23:02:17:679
0.0958;0.0192;9.7588;0.1461;-0.0111;9.8055;-0.0368;0.0096;0.1383;0.0318;0.0086;0.0709;122.0;-16.19;-11.0;8.31;124.29;0.06;-0.85;5.0;17.814;46.035576;11.130806;;NaN;;899.999;;3 / 24;2868;2022-11-16 23:02:17:689
0.0958;0.0192;9.7588;0.1461;-0.0111;9.8055;-0.0368;0.0096;0.1383;0.0318;0.0086;0.0709;122.0;-16.19;-11.0;8.31;124.29;0.06;-0.85;5.0;17.814;46.035576;11.130806;;NaN;;899.999;;3 / 24;2878;2022-11-16 23:02:17:699
0.0958;0.0192;9.7588;0.1461;-0.0111;9.8055;-0.0368;0.0096;0.1383;0.0318;0.0086;0.0709;122.0;-16.19;-11.0;8.31;124.29;0.06;-0.85;5.0;17.814;46.035576;11.130806;;NaN;;899.999;;3 / 24;2888;2022-11-16 23:02:17:709
0.0958;0.0192;9.7588;0.1416;-0.0057;9.8056;-0.0368;0.0096;0.1383;0.0318;0.0086;0.0709;122.0;-16.19;-11.0;8.31;124.29;0.06;-0.85;5.0;17.814;46.035576;11.130806;;NaN;;899.999;;3 / 24;2898;2022-11-16 23:02:17:719
0.0958;0.0192;9.7588;0.1416;-0.0057;9.8056;-0.0368;0.0096;0.1383;0.0318;0.0086;0.0709;122.0;-16.19;-11.0;8.31;124.29;0.06;-0.85;5.0;17.814;46.035576;11.130806;;NaN;;899.999;;3 / 24;2908;2022-11-16 23:02:17:729
0.1724;-0.0192;9.7683;0.1416;-0.0057;9.8056;0.0235;0.0328;0.1285;0.0;0.0;0.0;122.0;-16.19;-11.0;8.31;124.29;0.06;-0.85;5.0;17.814;46.035576;11.130806;;NaN;;899.999;;3 / 24;2918;2022-11-16 23:02:17:739
0.1724;-0.0192;9.7683;0.1416;-0.0057;9.8056;0.0235;0.0328;0.1285;0.0;0.0;0.0;122.0;-16.19;-11.0;8.31;124.29;0.06;-0.85;5.0;17.814;46.035576;11.130806;;NaN;;899.999;;3 / 24;2928;2022-11-16 23:02:17:749
0.1724;-0.0192;9.7683;0.1416;-0.0057;9.8056;0.0235;0.0328;0.1285;0.0;0.0;0.0;122.0;-16.0;-10.87;8.44;124.29;0.06;-0.85;5.0;17.814;46.035576;11.130806;;NaN;;899.999;;3 / 24;2938;2022-11-16 23:02:17:759
0.1724;-0.0192;9.7683;0.1416;-0.0057;9.8056;0.0235;0.0328;0.1285;0.0;0.0;0.0;122.0;-16.0;-10.87;8.44;124.29;0.06;-0.85;5.0;17.814;46.035576;11.130806;;NaN;;899.999;;3 / 24;2947;2022-11-16 23:02:17:768
0.1724;-0.0192;9.7683;0.1423;-0.0034;9.8056;0.0235;0.0328;0.1285;0.0;0.0;0.0;122.0;-16.0;-10.87;8.44;124.29;0.06;-0.85;5.0;17.814;46.035576;11.130806;;NaN;;899.999;;3 / 24;2958;2022-11-16 23:02:17:779
0.1724;-0.0192;9.7683;0.1423;-0.0034;9.8056;0.0235;0.0328;0.1285;0.0;0.0;0.0;122.0;-16.0;-10.87;8.44;124.29;0.06;-0.85;5.0;17.814;46.035576;11.130806;;NaN;;899.999;;3 / 24;2968;2022-11-16 23:02:17:789
0.1245;-0.0096;9.8162;0.1423;-0.0034;9.8056;0.0235;0.0328;0.1285;0.0;0.0;0.0;122.0;-16.0;-10.87;8.44;124.29;0.06;-0.85;5.0;17.814;46.035576;11.130806;;NaN;;899.999;;3 / 24;2978;2022-11-16 23:02:17:799
0.1245;-0.0096;9.8162;0.1423;-0.0034;9.8056;-0.0156;-0.0071;0.2462;0.0;0.0;0.0;122.0;-16.0;-10.87;8.44;124.29;0.06;-0.85;5.0;17.814;46.035576;11.130806;;NaN;;899.999;;3 / 24;2988;2022-11-16 23:02:17:809
0.1245;-0.0096;9.8162;0.1423;-0.0034;9.8056;-0.0156;-0.0071;0.2462;0.0;0.0;0.0;122.0;-16.0;-10.87;8.44;124.29;0.06;-0.85;5.0;17.814;46.035576;11.130806;;NaN;;899.999;;3 / 24;2998;2022-11-16 23:02:17:819
0.1245;-0.0096;9.8162;0.1423;-0.0034;9.8056;-0.0156;-0.0071;0.2462;0.0;0.0;0.0;122.0;-15.75;-10.62;9.38;124.29;0.02;-0.83;5.0;17.814;46.035576;11.130806;;NaN;;899.999;;3 / 24;3008;2022-11-16 23:02:17:829
0.1245;-0.0096;9.8162;0.1419;-0.0023;9.8056;-0.0156;-0.0071;0.2462;0.0;0.0;0.0;122.0;-15.75;-10.62;9.38;124.29;0.02;-0.83;5.0;17.814;46.035576;11.130806;;NaN;;899.999;;3 / 24;3018;2022-11-16 23:02:17:839
0.1245;-0.0096;9.8162;0.1419;-0.0023;9.8056;-0.0156;-0.0071;0.2462;0.0;0.0;0.0;122.0;-15.75;-10.62;9.38;124.29;0.02;-0.83;5.0;17.814;46.035576;11.130806;;NaN;;899.999;;3 / 24;3028;2022-11-16 23:02:17:849
0.1245;-0.0096;9.8162;0.1419;-0.0023;9.8056;-0.0156;-0.0071;0.2462;0.0;0.0;0.0;122.0;-15.75;-10.62;9.38;124.29;0.02;-0.83;5.0;17.814;46.035576;11.130806;;NaN;;899.999;;3 / 24;3037;2022-11-16 23:02:17:858
0.1053;-0.0192;9.7875;0.1419;-0.0023;9.8056;-0.0156;-0.0071;0.2462;-0.0061;0.0098;0.0782;122.0;-15.75;-10.62;9.38;124.29;0.02;-0.83;5.0;17.814;46.035576;11.130806;;NaN;;899.999;;3 / 24;3048;2022-11-16 23:02:17:869
0.1053;-0.0192;9.7875;0.1419;-0.0023;9.8056;-0.0592;0.0124;0.1676;-0.0061;0.0098;0.0782;122.0;-15.75;-10.62;9.38;124.29;0.02;-0.83;5.0;17.814;46.035576;11.130806;;NaN;;899.999;;3 / 24;3058;2022-11-16 23:02:17:879
0.1053;-0.0192;9.7875;0.1419;-0.0023;9.8056;-0.0592;0.0124;0.1676;-0.0061;0.0098;0.0782;122.0;-15.75;-10.62;9.38;124.29;0.02;-0.83;5.0;17.814;46.035576;11.130806;;NaN;;899.999;;3 / 24;3068;2022-11-16 23:02:17:889
0.1053;-0.0192;9.7875;0.1357;-0.0023;9.8057;-0.0592;0.0124;0.1676;-0.0061;0.0098;0.0782;122.0;-15.56;-10.87;9.69;124.29;0.02;-0.83;5.0;17.814;46.035576;11.130806;;NaN;;899.999;;3 / 24;3078;2022-11-16 23:02:17:899
0.1053;-0.0192;9.7875;0.1357;-0.0023;9.8057;-0.0592;0.0124;0.1676;-0.0061;0.0098;0.0782;122.0;-15.56;-10.87;9.69;124.29;0.02;-0.83;5.0;17.814;46.035576;11.130806;;NaN;;899.999;;3 / 24;3087;2022-11-16 23:02:17:908
0.1053;-0.0192;9.7875;0.1357;-0.0023;9.8057;-0.0592;0.0124;0.1676;-0.0061;0.0098;0.0782;122.0;-15.56;-10.87;9.69;124.29;0.02;-0.83;5.0;17.814;46.035576;11.130806;;NaN;;899.999;;3 / 24;3098;2022-11-16 23:02:17:919
0.1149;0.0;9.7683;0.1357;-0.0023;9.8057;-0.0592;0.0124;0.1676;-0.0061;0.0098;0.0782;122.0;-15.56;-10.87;9.69;124.29;0.02;-0.83;5.0;17.814;46.035576;11.130806;;NaN;;899.999;;3 / 24;3108;2022-11-16 23:02:17:929
0.1149;0.0;9.7683;0.1357;-0.0023;9.8057;-0.0424;0.0223;0.1871;-0.0061;0.0098;0.0782;122.0;-15.56;-10.87;9.69;124.29;0.02;-0.83;5.0;17.814;46.035576;11.130806;;NaN;;899.999;;3 / 24;3118;2022-11-16 23:02:17:939
0.1149;0.0;9.7683;0.1357;-0.0023;9.8057;-0.0424;0.0223;0.1871;-0.0061;0.0098;0.0782;122.0;-15.56;-10.87;9.69;124.29;0.02;-0.83;5.0;17.814;46.035576;11.130806;;NaN;;899.999;;3 / 24;3128;2022-11-16 23:02:17:949
0.1149;0.0;9.7683;0.1299;-0.0034;9.8057;-0.0424;0.0223;0.1871;-0.0061;0.0098;0.0782;122.0;-15.56;-10.87;9.69;124.29;0.02;-0.83;5.0;17.814;46.035576;11.130806;;NaN;;899.999;;3 / 24;3138;2022-11-16 23:02:17:959
0.1149;0.0;9.7683;0.1299;-0.0034;9.8057;-0.0424;0.0223;0.1871;-0.0061;0.0098;0.0782;122.0;-15.5;-11.31;9.69;126.01;0.02;-0.76;5.0;17.814;46.035576;11.130806;;NaN;;899.999;;3 / 24;3148;2022-11-16 23:02:17:969
0.1149;0.0;9.7683;0.1299;-0.0034;9.8057;-0.0424;0.0223;0.1871;-0.0061;0.0098;0.0782;122.0;-15.5;-11.31;9.69;126.01;0.02;-0.76;5.0;17.717;46.035576;11.130806;;NaN;;899.999;;3 / 24;3158;2022-11-16 23:02:17:979
0.1149;0.0;9.7683;0.1299;-0.0034;9.8057;-0.0424;0.0223;0.1871;-0.0061;0.0098;0.0782;122.0;-15.5;-11.31;9.69;126.01;0.02;-0.76;5.0;17.717;46.035576;11.130806;;NaN;;899.999;;3 / 24;3168;2022-11-16 23:02:17:989
0.1437;0.0575;9.7109;0.1299;-0.0034;9.8057;0.0268;-0.05;0.1675;-0.0379;0.0929;0.0929;122.0;-15.5;-11.31;9.69;126.01;0.02;-0.76;5.0;17.717;46.035576;11.130806;;NaN;;899.999;;3 / 24;3178;2022-11-16 23:02:17:999
0.1437;0.0575;9.7109;0.1299;-0.0034;9.8057;0.0268;-0.05;0.1675;-0.0379;0.0929;0.0929;122.0;-15.5;-11.31;9.69;126.01;0.02;-0.76;5.0;17.717;46.035576;11.130806;;NaN;;899.999;;3 / 24;3188;2022-11-16 23:02:18:009
0.1437;0.0575;9.7109;0.1307;-0.0111;9.8057;0.0268;-0.05;0.1675;-0.0379;0.0929;0.0929;122.0;-15.5;-11.31;9.69;126.01;0.02;-0.76;5.0;17.717;46.035576;11.130806;;NaN;;899.999;;3 / 24;3198;2022-11-16 23:02:18:019
0.1437;0.0575;9.7109;0.1307;-0.0111;9.8057;0.0268;-0.05;0.1675;-0.0379;0.0929;0.0929;122.0;-15.5;-11.31;9.69;126.01;0.02;-0.76;5.0;17.717;46.035576;11.130806;;NaN;;899.999;;3 / 24;3208;2022-11-16 23:02:18:029
0.1437;0.0575;9.7109;0.1307;-0.0111;9.8057;0.0268;-0.05;0.1675;-0.0379;0.0929;0.0929;122.0;-16.75;-10.44;8.94;126.01;0.02;-0.76;5.0;17.717;46.035576;11.130806;;NaN;;899.999;;3 / 24;3218;2022-11-16 23:02:18:039
0.1437;0.0575;9.7109;0.1307;-0.0111;9.8057;0.0268;-0.05;0.1675;-0.0379;0.0929;0.0929;122.0;-16.75;-10.44;8.94;126.01;0.02;-0.76;5.0;17.717;46.035576;11.130806;;NaN;;899.999;;3 / 24;3228;2022-11-16 23:02:18:049
0.1149;0.0;9.7492;0.1307;-0.0111;9.8057;-0.0111;0.0115;0.1773;-0.0379;0.0929;0.0929;122.0;-16.75;-10.44;8.94;126.01;0.02;-0.76;5.0;17.717;46.035576;11.130806;;NaN;;899.999;;3 / 24;3237;2022-11-16 23:02:18:058
0.1149;0.0;9.7492;0.1307;-0.0111;9.8057;-0.0111;0.0115;0.1773;-0.0379;0.0929;0.0929;122.0;-16.75;-10.44;8.94;126.01;0.02;-0.76;5.0;17.717;46.035576;11.130806;;NaN;;899.999;;3 / 24;3248;2022-11-16 23:02:18:069
0.1149;0.0;9.7492;0.13;-0.0081;9.8057;-0.0111;0.0115;0.1773;-0.0379;0.0929;0.0929;122.0;-16.75;-10.44;8.94;126.01;0.02;-0.76;5.0;17.717;46.035576;11.130806;;NaN;;899.999;;3 / 24;3258;2022-11-16 23:02:18:079
0.1149;0.0;9.7492;0.13;-0.0081;9.8057;-0.0111;0.0115;0.1773;-0.0379;0.0929;0.0929;122.0;-16.75;-10.44;8.94;126.01;0.02;-0.76;5.0;17.717;46.035576;11.130806;;NaN;;899.999;;3 / 24;3268;2022-11-16 23:02:18:089
0.1149;0.0;9.7492;0.13;-0.0081;9.8057;-0.0111;0.0115;0.1773;-0.0379;0.0929;0.0929;122.0;-16.75;-10.44;8.94;126.01;0.02;-0.76;5.0;17.717;46.035576;11.130806;;NaN;;899.999;;3 / 24;3278;2022-11-16 23:02:18:099
0.1149;0.0;9.7492;0.13;-0.0081;9.8057;-0.0111;0.0115;0.1773;-0.0379;0.0929;0.0929;122.0;-16.12;-10.19;9.13;121.8;0.05;-0.76;5.0;17.717;46.035576;11.130806;;NaN;;899.999;;5 / 21;3288;2022-11-16 23:02:18:109
0.1149;0.0;9.7492;0.13;-0.0081;9.8057;-0.0111;0.0115;0.1773;-0.0379;0.0929;0.0929;122.0;-16.12;-10.19;9.13;121.8;0.05;-0.76;5.0;17.717;46.035576;11.130806;;NaN;;899.999;;5 / 21;3298;2022-11-16 23:02:18:119
0.1628;-0.0096;9.663;0.13;-0.0081;9.8057;-0.0111;0.0115;0.1773;0.0061;0.0012;0.1112;122.0;-16.12;-10.19;9.13;121.8;0.05;-0.76;5.0;17.717;46.035576;11.130806;;NaN;;899.999;;5 / 21;3308;2022-11-16 23:02:18:129
0.1628;-0.0096;9.663;0.13;-0.0081;9.8057;-0.0111;0.0115;0.1773;0.0061;0.0012;0.1112;122.0;-16.12;-10.19;9.13;121.8;0.05;-0.76;5.0;17.717;46.035576;11.130806;;NaN;;899.999;;5 / 21;3318;2022-11-16 23:02:18:139
0.1628;-0.0096;9.663;0.1316;-0.0034;9.8057;0.0351;-0.0063;0.1774;0.0061;0.0012;0.1112;122.0;-16.12;-10.19;9.13;121.8;0.05;-0.76;5.0;17.717;46.035576;11.130806;;NaN;;899.999;;5 / 21;3328;2022-11-16 23:02:18:149
0.1628;-0.0096;9.663;0.1316;-0.0034;9.8057;0.0351;-0.0063;0.1774;0.0061;0.0012;0.1112;122.0;-16.12;-10.19;9.13;121.8;0.05;-0.76;5.0;17.717;46.035576;11.130806;;NaN;;899.999;;5 / 21;3338;2022-11-16 23:02:18:159
0.1628;-0.0096;9.663;0.1316;-0.0034;9.8057;0.0351;-0.0063;0.1774;0.0061;0.0012;0.1112;122.0;-16.12;-10.19;9.13;121.8;0.05;-0.76;5.0;17.717;46.035576;11.130806;;NaN;;899.999;;5 / 21;3348;2022-11-16 23:02:18:169
0.1628;-0.0096;9.663;0.1316;-0.0034;9.8057;0.0351;-0.0063;0.1774;0.0061;0.0012;0.1112;122.0;-15.56;-11.06;9.44;121.8;0.05;-0.76;5.0;17.717;46.035576;11.130806;;NaN;;899.999;;5 / 21;3358;2022-11-16 23:02:18:179
0.1724;0.0383;9.7683;0.1316;-0.0034;9.8057;0.0351;-0.0063;0.1774;0.0061;0.0012;0.1112;122.0;-15.56;-11.06;9.44;121.8;0.05;-0.76;5.0;17.717;46.035576;11.130806;;NaN;;899.999;;5 / 21;3368;2022-11-16 23:02:18:189
0.1724;0.0383;9.7683;0.1342;-0.0057;9.8057;0.0351;-0.0063;0.1774;0.0061;0.0012;0.1112;122.0;-15.56;-11.06;9.44;121.8;0.05;-0.76;5.0;17.717;46.035576;11.130806;;NaN;;899.999;;5 / 21;3378;2022-11-16 23:02:18:199
0.1724;0.0383;9.7683;0.1342;-0.0057;9.8057;0.0351;-0.0063;0.1774;0.0061;0.0012;0.1112;122.0;-15.56;-11.06;9.44;121.8;0.05;-0.76;5.0;17.717;46.035576;11.130806;;NaN;;899.999;;5 / 21;3388;2022-11-16 23:02:18:209
0.1724;0.0383;9.7683;0.1342;-0.0057;9.8057;-0.0346;0.0151;0.2264;0.0061;0.0012;0.1112;122.0;-15.56;-11.06;9.44;121.8;0.05;-0.76;5.0;17.717;46.035576;11.130806;;NaN;;899.999;;5 / 21;3398;2022-11-16 23:02:18:219
0.1724;0.0383;9.7683;0.1342;-0.0057;9.8057;-0.0346;0.0151;0.2264;0.0061;0.0012;0.1112;122.0;-15.56;-11.06;9.44;121.8;0.05;-0.76;5.0;17.717;46.035576;11.130806;;NaN;;899.999;;5 / 21;3408;2022-11-16 23:02:18:229
0.1724;0.0383;9.7683;0.1342;-0.0057;9.8057;-0.0346;0.0151;0.2264;0.0061;0.0012;0.1112;122.0;-15.56;-11.06;9.44;121.8;0.05;-0.76;5.0;17.717;46.035576;11.130806;;NaN;;899.999;;5 / 21;3418;2022-11-16 23:02:18:239
0.1724;0.0383;9.7683;0.1342;-0.0057;9.8057;-0.0346;0.0151;0.2264;0.0061;0.0012;0.1112;119.0;-15.62;-11.06;10.19;124.27;0.03;-0.78;5.0;17.717;46.035576;11.130806;;NaN;;899.999;;5 / 21;3428;2022-11-16 23:02:18:249
0.1245;0.0287;9.8354;0.1319;-0.0034;9.8057;-0.0346;0.0151;0.2264;0.0403;-0.0122;-0.066;119.0;-15.62;-11.06;10.19;124.27;0.03;-0.78;5.0;17.717;46.035576;11.130806;;NaN;;899.999;;5 / 21;3438;2022-11-16 23:02:18:259
0.1245;0.0287;9.8354;0.1319;-0.0034;9.8057;-0.0346;0.0151;0.2264;0.0403;-0.0122;-0.066;119.0;-15.62;-11.06;10.19;124.27;0.03;-0.78;5.0;17.717;46.035576;11.130806;;NaN;;899.999;;5 / 21;3448;2022-11-16 23:02:18:269
0.1245;0.0287;9.8354;0.1319;-0.0034;9.8057;-0.0346;0.0151;0.2264;0.0403;-0.0122;-0.066;119.0;-15.62;-11.06;10.19;124.27;0.03;-0.78;5.0;17.717;46.035576;11.130806;;NaN;;899.999;;5 / 21;3458;2022-11-16 23:02:18:279
0.1245;0.0287;9.8354;0.1319;-0.0034;9.8057;-0.0346;0.0151;0.2264;0.0403;-0.0122;-0.066;119.0;-15.62;-11.06;10.19;124.27;0.03;-0.78;5.0;17.676;46.035576;11.130806;;NaN;;899.999;;5 / 21;3468;2022-11-16 23:02:18:289
0.1245;0.0287;9.8354;0.1319;-0.0034;9.8057;0.0064;0.009;0.246;0.0403;-0.0122;-0.066;119.0;-15.62;-11.06;10.19;124.27;0.03;-0.78;5.0;17.676;46.035576;11.130806;;NaN;;899.999;;5 / 21;3478;2022-11-16 23:02:18:299
0.1245;0.0287;9.8354;0.1319;-0.0034;9.8057;0.0064;0.009;0.246;0.0403;-0.0122;-0.066;119.0;-15.62;-11.06;10.19;124.27;0.03;-0.78;5.0;17.676;46.035576;11.130806;;NaN;;899.999;;5 / 21;3488;2022-11-16 23:02:18:309
0.1341;0.0096;9.7683;0.1319;0.0011;9.8057;0.0064;0.009;0.246;0.0403;-0.0122;-0.066;119.0;-15.94;-11.0;10.63;124.27;0.03;-0.78;5.0;17.676;46.035576;11.130806;;NaN;;899.999;;5 / 21;3498;2022-11-16 23:02:18:319
0.1341;0.0096;9.7683;0.1319;0.0011;9.8057;0.0064;0.009;0.246;0.0403;-0.0122;-0.066;119.0;-15.94;-11.0;10.63;124.27;0.03;-0.78;5.0;17.676;46.035576;11.130806;;NaN;;899.999;;5 / 21;3508;2022-11-16 23:02:18:329
0.1341;0.0096;9.7683;0.1319;0.0011;9.8057;0.0064;0.009;0.246;0.0403;-0.0122;-0.066;119.0;-15.94;-11.0;10.63;124.27;0.03;-0.78;5.0;17.676;46.035576;11.130806;;NaN;;899.999;;5 / 21;3518;2022-11-16 23:02:18:339
0.1341;0.0096;9.7683;0.1319;0.0011;9.8057;0.0064;0.009;0.246;0.0403;-0.0122;-0.066;119.0;-15.94;-11.0;10.63;124.27;0.03;-0.78;5.0;17.676;46.035576;11.130806;;NaN;;899.999;;5 / 21;3528;2022-11-16 23:02:18:349
0.1341;0.0096;9.7683;0.1319;0.0011;9.8057;0.0064;0.009;0.246;0.0403;-0.0122;-0.066;119.0;-15.94;-11.0;10.63;124.27;0.03;-0.78;5.0;17.676;46.035576;11.130806;;NaN;;899.999;;5 / 21;3538;2022-11-16 23:02:18:359
0.1341;0.0096;9.7683;0.1319;0.0011;9.8057;0.021;-0.0403;0.1774;0.0403;-0.0122;-0.066;119.0;-15.94;-11.0;10.63;124.27;0.03;-0.78;5.0;17.676;46.035576;11.130806;;NaN;;899.999;;5 / 21;3548;2022-11-16 23:02:18:369
0.1341;0.0096;9.7683;0.1385;3.0E-4;9.8056;0.021;-0.0403;0.1774;0.0403;-0.0122;-0.066;119.0;-15.94;-11.0;10.63;124.27;0.03;-0.78;5.0;17.676;46.035576;11.130806;;NaN;;899.999;;5 / 21;3557;2022-11-16 23:02:18:378
0.0958;0.0096;9.7971;0.1385;3.0E-4;9.8056;0.021;-0.0403;0.1774;0.0073;0.0061;-0.1112;119.0;-14.87;-11.06;10.19;126.0;0.0;-0.81;5.0;17.676;46.035576;11.130806;;NaN;;899.999;;5 / 21;3568;2022-11-16 23:02:18:389
0.0958;0.0096;9.7971;0.1385;3.0E-4;9.8056;0.021;-0.0403;0.1774;0.0073;0.0061;-0.1112;119.0;-14.87;-11.06;10.19;126.0;0.0;-0.81;5.0;17.676;46.035576;11.130806;;NaN;;899.999;;5 / 21;3578;2022-11-16 23:02:18:399
0.0958;0.0096;9.7971;0.1385;3.0E-4;9.8056;0.021;-0.0403;0.1774;0.0073;0.0061;-0.1112;119.0;-14.87;-11.06;10.19;126.0;0.0;-0.81;5.0;17.676;46.035576;11.130806;;NaN;;899.999;;5 / 21;3588;2022-11-16 23:02:18:409
0.0958;0.0096;9.7971;0.1385;3.0E-4;9.8056;0.021;-0.0403;0.1774;0.0073;0.0061;-0.1112;119.0;-14.87;-11.06;10.19;126.0;0.0;-0.81;5.0;17.676;46.035576;11.130806;;NaN;;899.999;;5 / 21;3598;2022-11-16 23:02:18:419
0.0958;0.0096;9.7971;0.1385;3.0E-4;9.8056;0.021;-0.0403;0.1774;0.0073;0.0061;-0.1112;119.0;-14.87;-11.06;10.19;126.0;0.0;-0.81;5.0;17.676;46.035576;11.130806;;NaN;;899.999;;5 / 21;3608;2022-11-16 23:02:18:429
0.0958;0.0096;9.7971;0.1462;-0.0045;9.8055;0.04;-0.0836;0.207;0.0073;0.0061;-0.1112;119.0;-14.87;-11.06;10.19;126.0;0.0;-0.81;5.0;17.676;46.035576;11.130806;;NaN;;899.999;;5 / 21;3618;2022-11-16 23:02:18:439
0.1915;0.0;9.7109;0.1462;-0.0045;9.8055;0.04;-0.0836;0.207;0.0073;0.0061;-0.1112;119.0;-14.87;-11.06;10.19;126.0;0.0;-0.81;5.0;17.676;46.035576;11.130806;;NaN;;899.999;;5 / 21;3628;2022-11-16 23:02:18:449
0.1915;0.0;9.7109;0.1462;-0.0045;9.8055;0.04;-0.0836;0.207;0.0073;0.0061;-0.1112;119.0;-14.37;-11.81;11.44;126.0;0.0;-0.81;5.0;17.676;46.035576;11.130806;;NaN;;899.999;;5 / 21;3638;2022-11-16 23:02:18:459
0.1915;0.0;9.7109;0.1462;-0.0045;9.8055;0.04;-0.0836;0.207;0.0073;0.0061;-0.1112;119.0;-14.37;-11.81;11.44;126.0;0.0;-0.81;5.0;17.676;46.035576;11.130806;;NaN;;899.999;;5 / 21;3648;2022-11-16 23:02:18:469
0.1915;0.0;9.7109;0.1462;-0.0045;9.8055;0.04;-0.0836;0.207;0.0073;0.0061;-0.1112;119.0;-14.37;-11.81;11.44;126.0;0.0;-0.81;5.0;17.676;46.035576;11.130806;;NaN;;899.999;;5 / 21;3657;2022-11-16 23:02:18:478
0.1915;0.0;9.7109;0.1462;-0.0045;9.8055;0.04;-0.0836;0.207;0.0073;0.0061;-0.1112;119.0;-14.37;-11.81;11.44;126.0;0.0;-0.81;5.0;17.676;46.035576;11.130806;;NaN;;899.999;;5 / 21;3667;2022-11-16 23:02:18:488
0.1915;0.0;9.7109;0.1438;3.0E-4;9.8055;-0.0164;0.0584;0.2069;0.0073;0.0061;-0.1112;119.0;-14.37;-11.81;11.44;126.0;0.0;-0.81;5.0;17.676;46.035576;11.130806;;NaN;;899.999;;5 / 21;3678;2022-11-16 23:02:18:499
0.1915;0.0;9.7109;0.1438;3.0E-4;9.8055;-0.0164;0.0584;0.2069;0.0073;0.0061;-0.1112;119.0;-14.37;-11.81;11.44;126.0;0.0;-0.81;5.0;17.676;46.035576;11.130806;;NaN;;899.999;;5 / 21;3688;2022-11-16 23:02:18:509
0.1532;0.0;9.8258;0.1438;3.0E-4;9.8055;-0.0164;0.0584;0.2069;-0.0086;0.0012;-0.1906;119.0;-14.37;-11.81;11.44;126.0;0.0;-0.81;5.0;17.676;46.035576;11.130806;;NaN;;899.999;;5 / 21;3698;2022-11-16 23:02:18:519
0.1532;0.0;9.8258;0.1438;3.0E-4;9.8055;-0.0164;0.0584;0.2069;-0.0086;0.0012;-0.1906;119.0;-14.19;-10.31;11.13;125.23;0.0;-0.84;5.0;17.676;46.035576;11.130806;;NaN;;899.999;;5 / 21;3708;2022-11-16 23:02:18:529
0.1532;0.0;9.8258;0.1438;3.0E-4;9.8055;-0.0164;0.0584;0.2069;-0.0086;0.0012;-0.1906;119.0;-14.19;-10.31;11.13;125.23;0.0;-0.84;5.0;17.676;46.035576;11.130806;;NaN;;899.999;;5 / 21;3718;2022-11-16 23:02:18:539
0.1532;0.0;9.8258;0.1438;3.0E-4;9.8055;-0.0164;0.0584;0.2069;-0.0086;0.0012;-0.1906;119.0;-14.19;-10.31;11.13;125.23;0.0;-0.84;5.0;17.676;46.035576;11.130806;;NaN;;899.999;;5 / 21;3728;2022-11-16 23:02:18:549
0.1532;0.0;9.8258;0.1435;-0.0034;9.8055;-0.0164;0.0584;0.2069;-0.0086;0.0012;-0.1906;119.0;-14.19;-10.31;11.13;125.23;0.0;-0.84;5.0;17.676;46.035576;11.130806;;NaN;;899.999;;5 / 21;3738;2022-11-16 23:02:18:559
0.1532;0.0;9.8258;0.1435;-0.0034;9.8055;-0.0164;0.0584;0.2069;-0.0086;0.0012;-0.1906;119.0;-14.19;-10.31;11.13;125.23;0.0;-0.84;5.0;17.676;46.035576;11.130806;;NaN;;899.999;;5 / 21;3748;2022-11-16 23:02:18:569
0.1149;0.0192;9.7875;0.1435;-0.0034;9.8055;-0.0164;0.0584;0.2069;-0.0086;0.0012;-0.1906;119.0;-14.19;-10.31;11.13;125.23;0.0;-0.84;5.0;17.676;46.035576;11.130806;;NaN;;899.999;;5 / 21;3758;2022-11-16 23:02:18:579
0.1149;0.0192;9.7875;0.1435;-0.0034;9.8055;-0.0239;0.0234;0.2167;-0.0086;0.0012;-0.1906;119.0;-14.19;-10.31;11.13;125.23;0.0;-0.84;5.0;17.676;46.035576;11.130806;;NaN;;899.999;;5 / 21;3767;2022-11-16 23:02:18:588
0.1149;0.0192;9.7875;0.1435;-0.0034;9.8055;-0.0239;0.0234;0.2167;-0.0086;0.0012;-0.1906;119.0;-14.19;-11.25;11.19;125.23;0.0;-0.84;5.0;17.676;46.035576;11.130806;;NaN;;899.999;;5 / 21;3777;2022-11-16 23:02:18:598
0.1149;0.0192;9.7875;0.1435;-0.0034;9.8055;-0.0239;0.0234;0.2167;-0.0086;0.0012;-0.1906;122.0;-14.19;-11.25;11.19;125.23;0.0;-0.84;5.0;18.152;46.035576;11.130806;;NaN;;899.999;;5 / 21;3788;2022-11-16 23:02:18:609
0.1149;0.0192;9.7875;0.1431;-0.0015;9.8056;-0.0239;0.0234;0.2167;-0.0086;0.0012;-0.1906;122.0;-14.19;-11.25;11.19;125.23;0.0;-0.84;5.0;18.152;46.035576;11.130806;;NaN;;899.999;;5 / 21;3798;2022-11-16 23:02:18:619
0.1149;0.0192;9.7875;0.1431;-0.0015;9.8056;-0.0239;0.0234;0.2167;-0.0086;0.0012;-0.1906;122.0;-14.19;-11.25;11.19;125.23;0.0;-0.84;5.0;18.152;46.035576;11.130806;;NaN;;899.999;;5 / 21;3808;2022-11-16 23:02:18:629
0.1149;0.0192;9.7875;0.1431;-0.0015;9.8056;-0.0239;0.0234;0.2167;-0.0086;0.0012;-0.1906;122.0;-14.19;-11.25;11.19;125.23;0.0;-0.84;5.0;18.152;46.035576;11.130806;;NaN;;899.999;;5 / 21;3818;2022-11-16 23:02:18:639
0.1724;0.0;9.7492;0.1431;-0.0015;9.8056;-0.0239;0.0234;0.2167;-0.011;0.0;-0.1356;122.0;-14.19;-11.25;11.19;125.23;0.0;-0.84;5.0;18.152;46.035576;11.130806;;NaN;;899.999;;5 / 21;3828;2022-11-16 23:02:18:649
0.1724;0.0;9.7492;0.1431;-0.0015;9.8056;-0.0326;0.029;0.2069;-0.011;0.0;-0.1356;122.0;-14.19;-11.25;11.19;125.23;0.0;-0.84;5.0;18.152;46.035576;11.130806;;NaN;;899.999;;5 / 21;3838;2022-11-16 23:02:18:659
0.1724;0.0;9.7492;0.1431;-0.0015;9.8056;-0.0326;0.029;0.2069;-0.011;0.0;-0.1356;122.0;-14.06;-11.19;11.56;127.81;0.01;-0.84;5.0;18.152;46.035576;11.130806;;NaN;;899.999;;5 / 21;3847;2022-11-16 23:02:18:668
0.1724;0.0;9.7492;0.1408;-0.0015;9.8056;-0.0326;0.029;0.2069;-0.011;0.0;-0.1356;122.0;-14.06;-11.19;11.56;127.81;0.01;-0.84;5.0;18.152;46.035576;11.130806;;NaN;;899.999;;5 / 21;3858;2022-11-16 23:02:18:679
0.1724;0.0;9.7492;0.1408;-0.0015;9.8056;-0.0326;0.029;0.2069;-0.011;0.0;-0.1356;122.0;-14.06;-11.19;11.56;127.81;0.01;-0.84;5.0;18.152;46.035576;11.130806;;NaN;;899.999;;5 / 21;3868;2022-11-16 23:02:18:689
0.1724;0.0;9.7492;0.1408;-0.0015;9.8056;-0.0326;0.029;0.2069;-0.011;0.0;-0.1356;122.0;-14.06;-11.19;11.56;127.81;0.01;-0.84;5.0;18.152;46.035576;11.130806;;NaN;;899.999;;5 / 21;3878;2022-11-16 23:02:18:699
0.0958;-0.0383;9.7683;0.1408;-0.0015;9.8056;-0.0326;0.029;0.2069;-0.011;0.0;-0.1356;122.0;-14.06;-11.19;11.56;127.81;0.01;-0.84;5.0;18.152;46.035576;11.130806;;NaN;;899.999;;5 / 21;3888;2022-11-16 23:02:18:709
0.0958;-0.0383;9.7683;0.1408;-0.0015;9.8056;-0.0062;-0.0263;0.1971;-0.011;0.0;-0.1356;122.0;-14.06;-11.19;11.56;127.81;0.01;-0.84;5.0;18.152;46.035576;11.130806;;NaN;;899.999;;5 / 21;3898;2022-11-16 23:02:18:719
0.0958;-0.0383;9.7683;0.1408;-0.0015;9.8056;-0.0062;-0.0263;0.1971;-0.011;0.0;-0.1356;122.0;-14.06;-11.19;11.56;127.81;0.01;-0.84;5.0;18.152;46.035576;11.130806;;NaN;;899.999;;5 / 21;3908;2022-11-16 23:02:18:729
0.0958;-0.0383;9.7683;0.1411;-0.0042;9.8056;-0.0062;-0.0263;0.1971;-0.011;0.0;-0.1356;122.0;-13.81;-11.19;11.69;127.81;0.01;-0.84;5.0;18.152;46.035576;11.130806;;NaN;;899.999;;5 / 21;3918;2022-11-16 23:02:18:739
0.0958;-0.0383;9.7683;0.1411;-0.0042;9.8056;-0.0062;-0.0263;0.1971;-0.011;0.0;-0.1356;122.0;-13.81;-11.19;11.69;127.81;0.01;-0.84;5.0;18.152;46.035576;11.130806;;NaN;;899.999;;5 / 21;3928;2022-11-16 23:02:18:749
0.0958;-0.0383;9.7683;0.1411;-0.0042;9.8056;-0.0062;-0.0263;0.1971;-0.011;0.0;-0.1356;122.0;-13.81;-11.19;11.69;127.81;0.01;-0.84;5.0;18.152;46.035576;11.130806;;NaN;;899.999;;5 / 21;3938;2022-11-16 23:02:18:759
0.0958;-0.0383;9.7683;0.1411;-0.0042;9.8056;-0.0062;-0.0263;0.1971;-0.011;0.0;-0.1356;122.0;-13.81;-11.19;11.69;127.81;0.01;-0.84;5.0;18.152;46.035576;11.130806;;NaN;;899.999;;5 / 21;3948;2022-11-16 23:02:18:769
0.1245;-0.0383;9.8162;0.1411;-0.0042;9.8056;-0.0215;-0.0225;0.1971;0.0;0.0;0.0;122.0;-13.81;-11.19;11.69;127.81;0.01;-0.84;5.0;18.152;46.035576;11.130806;;NaN;;899.999;;5 / 21;3958;2022-11-16 23:02:18:779
0.1245;-0.0383;9.8162;0.1411;-0.0042;9.8056;-0.0215;-0.0225;0.1971;0.0;0.0;0.0;122.0;-13.81;-11.19;11.69;127.81;0.01;-0.84;5.0;18.152;46.035576;11.130806;;NaN;;899.999;;5 / 21;3968;2022-11-16 23:02:18:789
0.1245;-0.0383;9.8162;0.1396;-0.005;9.8056;-0.0215;-0.0225;0.1971;0.0;0.0;0.0;122.0;-13.81;-11.19;11.69;127.81;0.01;-0.84;5.0;18.152;46.035576;11.130806;;NaN;;899.999;;5 / 21;3978;2022-11-16 23:02:18:799
0.1245;-0.0383;9.8162;0.1396;-0.005;9.8056;-0.0215;-0.0225;0.1971;0.0;0.0;0.0;122.0;-14.19;-11.25;11.63;127.81;0.03;-0.82;5.0;18.152;46.035576;11.130806;;NaN;;899.999;;5 / 21;3988;2022-11-16 23:02:18:809
0.1245;-0.0383;9.8162;0.1396;-0.005;9.8056;-0.0215;-0.0225;0.1971;0.0;0.0;0.0;122.0;-14.19;-11.25;11.63;127.81;0.03;-0.82;5.0;18.152;46.035576;11.130806;;NaN;;899.999;;5 / 21;3998;2022-11-16 23:02:18:819
0.1245;-0.0383;9.8162;0.1396;-0.005;9.8056;-0.0215;-0.0225;0.1971;0.0;0.0;0.0;122.0;-14.19;-11.25;11.63;127.81;0.03;-0.82;5.0;18.152;46.035576;11.130806;;NaN;;899.999;;5 / 21;4008;2022-11-16 23:02:18:829
0.0862;0.0;9.7875;0.1396;-0.005;9.8056;-0.0475;0.0053;0.2166;0.0;0.0;0.0;122.0;-14.19;-11.25;11.63;127.81;0.03;-0.82;5.0;18.152;46.035576;11.130806;;NaN;;899.999;;5 / 21;4018;2022-11-16 23:02:18:839
0.0862;0.0;9.7875;0.1396;-0.005;9.8056;-0.0475;0.0053;0.2166;0.0;0.0;0.0;127.0;-14.19;-11.25;11.63;127.81;0.03;-0.82;5.0;18.152;46.035576;11.130806;;NaN;;899.999;;5 / 21;4028;2022-11-16 23:02:18:849
0.0862;0.0;9.7875;0.1342;-0.0042;9.8057;-0.0475;0.0053;0.2166;0.0;0.0;0.0;127.0;-14.19;-11.25;11.63;127.81;0.03;-0.82;5.0;18.152;46.035576;11.130806;;NaN;;899.999;;5 / 21;4038;2022-11-16 23:02:18:859
0.0862;0.0;9.7875;0.1342;-0.0042;9.8057;-0.0475;0.0053;0.2166;0.0;0.0;0.0;127.0;-14.19;-11.25;11.63;127.81;0.03;-0.82;5.0;18.152;46.035576;11.130806;;NaN;;899.999;;5 / 21;4048;2022-11-16 23:02:18:869
0.0862;0.0;9.7875;0.1342;-0.0042;9.8057;-0.0475;0.0053;0.2166;0.0;0.0;0.0;127.0;-14.0;-10.69;11.88;127.81;0.03;-0.82;5.0;18.152;46.035576;11.130806;;NaN;;899.999;;5 / 21;4058;2022-11-16 23:02:18:879
0.0862;0.0;9.7875;0.1342;-0.0042;9.8057;-0.0475;0.0053;0.2166;0.0;0.0;0.0;127.0;-14.0;-10.69;11.88;127.81;0.03;-0.82;5.0;18.152;46.035576;11.130806;;NaN;;899.999;;5 / 21;4068;2022-11-16 23:02:18:889
0.0862;0.0;9.7875;0.1342;-0.0042;9.8057;-0.0475;0.0053;0.2166;0.0;0.0;0.0;127.0;-14.0;-10.69;11.88;127.81;0.03;-0.82;5.0;18.152;46.035576;11.130806;;NaN;;899.999;;5 / 21;4078;2022-11-16 23:02:18:899
0.1341;0.0096;9.7205;0.1342;-0.0042;9.8057;-0.0475;0.0053;0.2166;0.0;0.0;0.0;127.0;-14.0;-10.69;11.88;127.81;0.03;-0.82;5.0;18.152;46.035576;11.130806;;NaN;;899.999;;5 / 21;4088;2022-11-16 23:02:18:909
0.1341;0.0096;9.7205;0.1361;-0.0084;9.8057;0.0403;-0.0111;0.1676;0.0;0.0;0.0;127.0;-14.0;-10.69;11.88;127.81;0.03;-0.82;5.0;18.152;46.035576;11.130806;;NaN;;899.999;;5 / 21;4098;2022-11-16 23:02:18:919
0.1341;0.0096;9.7205;0.1361;-0.0084;9.8057;0.0403;-0.0111;0.1676;0.0;0.0;0.0;127.0;-14.0;-10.69;11.88;127.81;0.03;-0.82;5.0;18.152;46.035576;11.130806;;NaN;;899.999;;5 / 21;4108;2022-11-16 23:02:18:929
0.1341;0.0096;9.7205;0.1361;-0.0084;9.8057;0.0403;-0.0111;0.1676;0.0;0.0;0.0;127.0;-14.0;-10.69;11.88;127.81;0.03;-0.82;5.0;18.152;46.035576;11.130806;;NaN;;899.999;;5 / 21;4118;2022-11-16 23:02:18:939
0.1341;0.0096;9.7205;0.1361;-0.0084;9.8057;0.0403;-0.0111;0.1676;0.0;0.0;0.0;127.0;-14.44;-11.25;12.13;127.81;0.05;-0.8;5.0;18.12;46.035576;11.130806;;NaN;;899.999;;5 / 21;4127;2022-11-16 23:02:18:948
0.1341;0.0096;9.7205;0.1361;-0.0084;9.8057;0.0403;-0.0111;0.1676;0.0;0.0;0.0;127.0;-14.44;-11.25;12.13;127.81;0.05;-0.8;5.0;18.12;46.035576;11.130806;;NaN;;899.999;;5 / 21;4138;2022-11-16 23:02:18:959
0.1245;-0.0192;9.73;0.1361;-0.0084;9.8057;0.0403;-0.0111;0.1676;0.0;0.0;0.0;138.0;-14.44;-11.25;12.13;127.81;0.05;-0.8;5.0;18.12;46.035576;11.130806;;NaN;;899.999;;5 / 21;4148;2022-11-16 23:02:18:969
0.1245;-0.0192;9.73;0.1335;-0.0011;9.8057;0.0403;-0.0111;0.1676;0.0;0.0;0.0;138.0;-14.44;-11.25;12.13;127.81;0.05;-0.8;5.0;18.12;46.035576;11.130806;;NaN;;899.999;;5 / 21;4158;2022-11-16 23:02:18:979
0.1245;-0.0192;9.73;0.1335;-0.0011;9.8057;0.0403;-0.0111;0.1676;0.0;0.0;0.0;138.0;-14.44;-11.25;12.13;127.81;0.05;-0.8;5.0;18.12;46.035576;11.130806;;NaN;;899.999;;5 / 21;4168;2022-11-16 23:02:18:989
0.1245;-0.0192;9.73;0.1335;-0.0011;9.8057;0.0127;-0.0153;0.197;0.0;0.0;0.0;138.0;-14.44;-11.25;12.13;127.81;0.05;-0.8;5.0;18.12;46.035576;11.130806;;NaN;;899.999;;5 / 21;4178;2022-11-16 23:02:18:999
0.1245;-0.0192;9.73;0.1335;-0.0011;9.8057;0.0127;-0.0153;0.197;0.0;0.0;0.0;138.0;-14.44;-11.25;12.13;127.81;0.05;-0.8;5.0;18.12;46.035576;11.130806;;NaN;;899.999;;5 / 21;4188;2022-11-16 23:02:19:009
0.1245;-0.0192;9.73;0.1335;-0.0011;9.8057;0.0127;-0.0153;0.197;0.0;0.0;0.0;138.0;-14.0;-11.25;11.63;127.81;0.05;-0.8;5.0;18.12;46.035576;11.130806;;NaN;;899.999;;5 / 21;4198;2022-11-16 23:02:19:019
0.1245;-0.0192;9.73;0.1335;-0.0011;9.8057;0.0127;-0.0153;0.197;0.0;0.0;0.0;138.0;-14.0;-11.25;11.63;127.81;0.05;-0.8;5.0;18.12;46.035576;11.130806;;NaN;;899.999;;5 / 21;4208;2022-11-16 23:02:19:029
0.0958;-0.067;9.7492;0.1361;-3.0E-4;9.8057;0.0127;-0.0153;0.197;0.0;0.0;0.0;138.0;-14.0;-11.25;11.63;127.81;0.05;-0.8;5.0;18.12;46.035576;11.130806;;NaN;;899.999;;5 / 21;4218;2022-11-16 23:02:19:039
0.0958;-0.067;9.7492;0.1361;-3.0E-4;9.8057;0.0127;-0.0153;0.197;0.0;0.0;0.0;138.0;-14.0;-11.25;11.63;127.81;0.05;-0.8;5.0;18.12;46.035576;11.130806;;NaN;;899.999;;5 / 21;4227;2022-11-16 23:02:19:048
0.0958;-0.067;9.7492;0.1361;-3.0E-4;9.8057;0.0015;-0.0192;0.197;0.0;0.0;0.0;138.0;-14.0;-11.25;11.63;127.81;0.05;-0.8;5.0;18.12;46.035576;11.130806;;NaN;;899.999;;5 / 21;4238;2022-11-16 23:02:19:059
0.0958;-0.067;9.7492;0.1361;-3.0E-4;9.8057;0.0015;-0.0192;0.197;0.0;0.0;0.0;138.0;-14.0;-11.25;11.63;127.81;0.05;-0.8;5.0;18.12;46.035576;11.130806;;NaN;;899.999;;5 / 21;4248;2022-11-16 23:02:19:069
0.0958;-0.067;9.7492;0.1361;-3.0E-4;9.8057;0.0015;-0.0192;0.197;0.0;0.0;0.0;138.0;-14.0;-11.25;11.63;127.81;0.05;-0.8;5.0;18.12;46.035576;11.130806;;NaN;;899.999;;5 / 21;4258;2022-11-16 23:02:19:079
0.0958;-0.067;9.7492;0.1361;-3.0E-4;9.8057;0.0015;-0.0192;0.197;0.0;0.0;0.0;141.0;-13.62;-11.19;11.88;127.83;0.0;-0.8;5.0;18.12;46.035576;11.130806;;NaN;;899.999;;5 / 21;4268;2022-11-16 23:02:19:089
0.1053;0.0;9.8354;0.1361;0.0015;9.8057;0.0015;-0.0192;0.197;0.0;0.0;0.0;141.0;-13.62;-11.19;11.88;127.83;0.0;-0.8;5.0;18.12;46.035576;11.130806;;NaN;;899.999;;3 / 24;4278;2022-11-16 23:02:19:099
0.1053;0.0;9.8354;0.1361;0.0015;9.8057;0.0015;-0.0192;0.197;0.0;0.0;0.0;141.0;-13.62;-11.19;11.88;127.83;0.0;-0.8;5.0;18.12;46.035576;11.130806;;NaN;;899.999;;3 / 24;4288;2022-11-16 23:02:19:109
0.1053;0.0;9.8354;0.1361;0.0015;9.8057;-0.0263;-0.0282;0.1676;0.0;0.0;0.0;141.0;-13.62;-11.19;11.88;127.83;0.0;-0.8;5.0;18.12;46.035576;11.130806;;NaN;;899.999;;3 / 24;4298;2022-11-16 23:02:19:119
0.1053;0.0;9.8354;0.1361;0.0015;9.8057;-0.0263;-0.0282;0.1676;0.0;0.0;0.0;141.0;-13.62;-11.19;11.88;127.83;0.0;-0.8;5.0;18.12;46.035576;11.130806;;NaN;;899.999;;3 / 24;4308;2022-11-16 23:02:19:129
0.1053;0.0;9.8354;0.1361;0.0015;9.8057;-0.0263;-0.0282;0.1676;0.0;0.0;0.0;141.0;-13.62;-11.19;11.88;127.83;0.0;-0.8;5.0;18.12;46.035576;11.130806;;NaN;;899.999;;3 / 24;4318;2022-11-16 23:02:19:139
0.1053;0.0;9.8354;0.1361;0.0015;9.8057;-0.0263;-0.0282;0.1676;0.0;0.0;0.0;141.0;-13.62;-11.19;11.88;127.83;0.0;-0.8;5.0;18.12;46.035576;11.130806;;NaN;;899.999;;3 / 24;4328;2022-11-16 23:02:19:149
0.1053;0.0;9.8354;0.1342;-0.0042;9.8057;-0.0263;-0.0282;0.1676;0.0;0.0;0.0;141.0;-13.62;-11.19;11.88;127.83;0.0;-0.8;5.0;18.12;46.035576;11.130806;;NaN;;899.999;;3 / 24;4338;2022-11-16 23:02:19:159
0.1532;-0.0287;9.8354;0.1342;-0.0042;9.8057;-0.0263;-0.0282;0.1676;0.0024;0.0037;-0.0782;141.0;-13.69;-11.06;11.81;127.83;0.0;-0.8;5.0;18.12;46.035576;11.130806;;NaN;;899.999;;3 / 24;4348;2022-11-16 23:02:19:169
0.1532;-0.0287;9.8354;0.1342;-0.0042;9.8057;-0.0139;0.0022;0.1185;0.0024;0.0037;-0.0782;141.0;-13.69;-11.06;11.81;127.83;0.0;-0.8;5.0;18.12;46.035576;11.130806;;NaN;;899.999;;3 / 24;4358;2022-11-16 23:02:19:179
0.1532;-0.0287;9.8354;0.1342;-0.0042;9.8057;-0.0139;0.0022;0.1185;0.0024;0.0037;-0.0782;141.0;-13.69;-11.06;11.81;127.83;0.0;-0.8;5.0;18.12;46.035576;11.130806;;NaN;;899.999;;3 / 24;4368;2022-11-16 23:02:19:189
0.1532;-0.0287;9.8354;0.1342;-0.0042;9.8057;-0.0139;0.0022;0.1185;0.0024;0.0037;-0.0782;141.0;-13.69;-11.06;11.81;127.83;0.0;-0.8;5.0;18.12;46.035576;11.130806;;NaN;;899.999;;3 / 24;4378;2022-11-16 23:02:19:199
0.1532;-0.0287;9.8354;0.1342;-0.0042;9.8057;-0.0139;0.0022;0.1185;0.0024;0.0037;-0.0782;143.0;-13.69;-11.06;11.81;127.83;0.0;-0.8;5.0;18.12;46.035576;11.130806;;NaN;;899.999;;3 / 24;4388;2022-11-16 23:02:19:209
0.1532;-0.0287;9.8354;0.1308;-0.0019;9.8057;-0.0139;0.0022;0.1185;0.0024;0.0037;-0.0782;143.0;-13.69;-11.06;11.81;127.83;0.0;-0.8;5.0;18.12;46.035576;11.130806;;NaN;;899.999;;3 / 24;4398;2022-11-16 23:02:19:219
0.1628;0.0096;9.7779;0.1308;-0.0019;9.8057;-0.0139;0.0022;0.1185;0.0024;0.0037;-0.0782;143.0;-14.06;-11.25;11.25;127.86;0.01;-0.76;5.0;18.12;46.035576;11.130806;;NaN;;899.999;;3 / 24;4407;2022-11-16 23:02:19:228
0.1628;0.0096;9.7779;0.1308;-0.0019;9.8057;0.0324;-0.0157;0.1676;0.0024;0.0037;-0.0782;143.0;-14.06;-11.25;11.25;127.86;0.01;-0.76;5.0;18.12;46.035576;11.130806;;NaN;;899.999;;3 / 24;4418;2022-11-16 23:02:19:239
0.1628;0.0096;9.7779;0.1308;-0.0019;9.8057;0.0324;-0.0157;0.1676;0.0024;0.0037;-0.0782;143.0;-14.06;-11.25;11.25;127.86;0.01;-0.76;5.0;18.12;46.035576;11.130806;;NaN;;899.999;;3 / 24;4427;2022-11-16 23:02:19:248
0.1628;0.0096;9.7779;0.1308;-0.0019;9.8057;0.0324;-0.0157;0.1676;0.0024;0.0037;-0.0782;143.0;-14.06;-11.25;11.25;127.86;0.01;-0.76;5.0;18.12;46.035576;11.130806;;NaN;;899.999;;3 / 24;4438;2022-11-16 23:02:19:259
0.1628;0.0096;9.7779;0.1308;-0.0019;9.8057;0.0324;-0.0157;0.1676;0.0024;0.0037;-0.0782;143.0;-14.06;-11.25;11.25;127.86;0.01;-0.76;5.0;17.529;46.035576;11.130806;;NaN;;899.999;;3 / 24;4448;2022-11-16 23:02:19:269
0.1628;0.0096;9.7779;0.1334;-0.0031;9.8057;0.0324;-0.0157;0.1676;0.0024;0.0037;-0.0782;143.0;-14.06;-11.25;11.25;127.86;0.01;-0.76;5.0;17.529;46.035576;11.130806;;NaN;;899.999;;3 / 24;4458;2022-11-16 23:02:19:279
0.1628;0.0096;9.7779;0.1334;-0.0031;9.8057;0.0324;-0.0157;0.1676;0.0024;0.0037;-0.0782;143.0;-14.06;-11.25;11.25;127.86;0.01;-0.76;5.0;17.529;46.035576;11.130806;;NaN;;899.999;;3 / 24;4468;2022-11-16 23:02:19:289
0.1341;-0.0096;9.7779;0.1334;-0.0031;9.8057;0.0325;0.043;0.2166;0.0024;0.0208;0.11;143.0;-16.19;-11.0;9.56;127.86;0.01;-0.76;5.0;17.529;46.035576;11.130806;;NaN;;899.999;;3 / 24;4478;2022-11-16 23:02:19:299
0.1341;-0.0096;9.7779;0.1334;-0.0031;9.8057;0.0325;0.043;0.2166;0.0024;0.0208;0.11;143.0;-16.19;-11.0;9.56;127.86;0.01;-0.76;5.0;17.529;46.035576;11.130806;;NaN;;899.999;;3 / 24;4488;2022-11-16 23:02:19:309
0.1341;-0.0096;9.7779;0.1334;-0.0031;9.8057;0.0325;0.043;0.2166;0.0024;0.0208;0.11;143.0;-16.19;-11.0;9.56;127.86;0.01;-0.76;5.0;17.529;46.035576;11.130806;;NaN;;899.999;;3 / 24;4498;2022-11-16 23:02:19:319
0.1341;-0.0096;9.7779;0.1334;-0.0031;9.8057;0.0325;0.043;0.2166;0.0024;0.0208;0.11;144.0;-16.19;-11.0;9.56;127.86;0.01;-0.76;5.0;17.529;46.035576;11.130806;;NaN;;899.999;;3 / 24;4509;2022-11-16 23:02:19:330
0.1341;-0.0096;9.7779;0.1391;-0.0038;9.8056;0.0325;0.043;0.2166;0.0024;0.0208;0.11;144.0;-16.19;-11.0;9.56;127.86;0.01;-0.76;5.0;17.529;46.035576;11.130806;;NaN;;899.999;;3 / 24;4518;2022-11-16 23:02:19:339
0.1341;-0.0096;9.7779;0.1391;-0.0038;9.8056;0.0325;0.043;0.2166;0.0024;0.0208;0.11;144.0;-16.19;-11.0;9.56;127.86;0.01;-0.76;5.0;17.529;46.035576;11.130806;;NaN;;899.999;;3 / 24;4528;2022-11-16 23:02:19:349
0.0958;0.0;9.7588;0.1391;-0.0038;9.8056;0.0325;0.043;0.2166;0.0024;0.0208;0.11;144.0;-16.19;-11.0;9.56;127.86;0.01;-0.76;5.0;17.529;46.035576;11.130806;;NaN;;899.999;;3 / 24;4538;2022-11-16 23:02:19:359
0.0958;0.0;9.7588;0.1391;-0.0038;9.8056;-0.0403;0.0034;0.1873;0.0024;0.0208;0.11;144.0;-15.75;-10.69;9.69;124.27;0.02;-0.81;5.0;17.529;46.035576;11.130806;;NaN;;899.999;;3 / 24;4548;2022-11-16 23:02:19:369
0.0958;0.0;9.7588;0.1391;-0.0038;9.8056;-0.0403;0.0034;0.1873;0.0024;0.0208;0.11;144.0;-15.75;-10.69;9.69;124.27;0.02;-0.81;5.0;17.529;46.035576;11.130806;;NaN;;899.999;;3 / 24;4558;2022-11-16 23:02:19:379
0.0958;0.0;9.7588;0.1391;-0.0038;9.8056;-0.0403;0.0034;0.1873;0.0024;0.0208;0.11;144.0;-15.75;-10.69;9.69;124.27;0.02;-0.81;5.0;17.529;46.035576;11.130806;;NaN;;899.999;;3 / 24;4568;2022-11-16 23:02:19:389
0.0958;0.0;9.7588;0.1341;-0.0011;9.8057;-0.0403;0.0034;0.1873;0.0024;0.0208;0.11;144.0;-15.75;-10.69;9.69;124.27;0.02;-0.81;5.0;17.529;46.035576;11.130806;;NaN;;899.999;;3 / 24;4578;2022-11-16 23:02:19:399
0.0958;0.0;9.7588;0.1341;-0.0011;9.8057;-0.0403;0.0034;0.1873;0.0024;0.0208;0.11;144.0;-15.75;-10.69;9.69;124.27;0.02;-0.81;5.0;17.529;46.035576;11.130806;;NaN;;899.999;;3 / 24;4588;2022-11-16 23:02:19:409
0.0958;0.0;9.7588;0.1341;-0.0011;9.8057;-0.0403;0.0034;0.1873;0.0024;0.0208;0.11;144.0;-15.75;-10.69;9.69;124.27;0.02;-0.81;5.0;17.529;46.035576;11.130806;;NaN;;899.999;;3 / 24;4598;2022-11-16 23:02:19:419
0.0958;0.0096;9.6917;0.1341;-0.0011;9.8057;-0.0403;0.0034;0.1873;0.0012;0.011;0.3751;144.0;-15.75;-10.69;9.69;124.27;0.02;-0.81;5.0;17.529;46.035576;11.130806;;NaN;;899.999;;3 / 24;4608;2022-11-16 23:02:19:429
0.0958;0.0096;9.6917;0.1341;-0.0011;9.8057;0.0086;0.0407;0.1382;0.0012;0.011;0.3751;144.0;-16.75;-11.19;7.88;124.27;0.02;-0.81;5.0;17.529;46.035576;11.130806;;NaN;;899.999;;3 / 24;4618;2022-11-16 23:02:19:439
0.0958;0.0096;9.6917;0.1341;-0.0011;9.8057;0.0086;0.0407;0.1382;0.0012;0.011;0.3751;143.0;-16.75;-11.19;7.88;124.27;0.02;-0.81;5.0;17.529;46.035576;11.130806;;NaN;;899.999;;3 / 24;4628;2022-11-16 23:02:19:449
0.0958;0.0096;9.6917;0.1395;-0.0065;9.8056;0.0086;0.0407;0.1382;0.0012;0.011;0.3751;143.0;-16.75;-11.19;7.88;124.27;0.02;-0.81;5.0;17.529;46.035576;11.130806;;NaN;;899.999;;3 / 24;4637;2022-11-16 23:02:19:458
0.0958;0.0096;9.6917;0.1395;-0.0065;9.8056;0.0086;0.0407;0.1382;0.0012;0.011;0.3751;143.0;-16.75;-11.19;7.88;124.27;0.02;-0.81;5.0;17.529;46.035576;11.130806;;NaN;;899.999;;3 / 24;4647;2022-11-16 23:02:19:468
0.0958;0.0096;9.6917;0.1395;-0.0065;9.8056;0.0086;0.0407;0.1382;0.0012;0.011;0.3751;143.0;-16.75;-11.19;7.88;124.27;0.02;-0.81;5.0;17.529;46.035576;11.130806;;NaN;;899.999;;3 / 24;4657;2022-11-16 23:02:19:478
0.1245;0.0192;9.73;0.1395;-0.0065;9.8056;0.0086;0.0407;0.1382;0.0012;0.011;0.3751;143.0;-16.75;-11.19;7.88;124.27;0.02;-0.81;5.0;17.529;46.035576;11.130806;;NaN;;899.999;;3 / 24;4667;2022-11-16 23:02:19:488
0.1245;0.0192;9.73;0.1395;-0.0065;9.8056;-0.0289;-0.0413;0.197;0.0012;0.011;0.3751;143.0;-16.75;-11.19;7.88;124.27;0.02;-0.81;5.0;17.529;46.035576;11.130806;;NaN;;899.999;;3 / 24;4678;2022-11-16 23:02:19:499
0.1245;0.0192;9.73;0.1395;-0.0065;9.8056;-0.0289;-0.0413;0.197;0.0012;0.011;0.3751;143.0;-16.12;-10.87;8.31;124.31;0.04;-0.82;5.0;17.529;46.035576;11.130806;;NaN;;899.999;;3 / 24;4687;2022-11-16 23:02:19:508
0.1245;0.0192;9.73;0.1369;-0.0096;9.8056;-0.0289;-0.0413;0.197;0.0012;0.011;0.3751;143.0;-16.12;-10.87;8.31;124.31;0.04;-0.82;5.0;17.529;46.035576;11.130806;;NaN;;899.999;;3 / 24;4697;2022-11-16 23:02:19:518
0.1245;0.0192;9.73;0.1369;-0.0096;9.8056;-0.0289;-0.0413;0.197;0.0012;0.011;0.3751;143.0;-16.12;-10.87;8.31;124.31;0.04;-0.82;5.0;17.529;46.035576;11.130806;;NaN;;899.999;;3 / 24;4707;2022-11-16 23:02:19:528
0.1245;0.0192;9.73;0.1369;-0.0096;9.8056;-0.0289;-0.0413;0.197;0.0012;0.011;0.3751;143.0;-16.12;-10.87;8.31;124.31;0.04;-0.82;5.0;17.529;46.035576;11.130806;;NaN;;899.999;;3 / 24;4717;2022-11-16 23:02:19:538
0.1245;0.0192;9.73;0.1369;-0.0096;9.8056;-0.0289;-0.0413;0.197;0.0012;0.011;0.3751;143.0;-16.12;-10.87;8.31;124.31;0.04;-0.82;5.0;17.529;46.035576;11.130806;;NaN;;899.999;;3 / 24;4728;2022-11-16 23:02:19:549
0.1341;0.0096;9.7875;0.1369;-0.0096;9.8056;-0.0289;-0.0413;0.197;0.0049;0.011;0.1747;143.0;-16.12;-10.87;8.31;124.31;0.04;-0.82;5.0;17.529;46.035576;11.130806;;NaN;;899.999;;3 / 24;4737;2022-11-16 23:02:19:558
0.1341;0.0096;9.7875;0.1369;-0.0096;9.8056;-0.0289;-0.0413;0.197;0.0049;0.011;0.1747;143.0;-16.12;-10.87;8.31;124.31;0.04;-0.82;5.0;17.529;46.035576;11.130806;;NaN;;899.999;;3 / 24;4747;2022-11-16 23:02:19:568
0.1341;0.0096;9.7875;0.1329;-0.0176;9.8057;-0.0289;-0.0413;0.197;0.0049;0.011;0.1747;143.0;-15.37;-10.37;8.81;124.31;0.04;-0.82;5.0;17.529;46.035576;11.130806;;NaN;;899.999;;3 / 24;4758;2022-11-16 23:02:19:579
0.1341;0.0096;9.7875;0.1329;-0.0176;9.8057;0.0435;-0.0117;0.2853;0.0049;0.011;0.1747;143.0;-15.37;-10.37;8.81;124.31;0.04;-0.82;5.0;17.529;46.035576;11.130806;;NaN;;899.999;;3 / 24;4768;2022-11-16 23:02:19:589
0.1341;0.0096;9.7875;0.1329;-0.0176;9.8057;0.0435;-0.0117;0.2853;0.0049;0.011;0.1747;143.0;-15.37;-10.37;8.81;124.31;0.04;-0.82;5.0;17.529;46.035576;11.130806;;NaN;;899.999;;3 / 24;4778;2022-11-16 23:02:19:599
0.1341;0.0096;9.7875;0.1329;-0.0176;9.8057;0.0435;-0.0117;0.2853;0.0049;0.011;0.1747;143.0;-15.37;-10.37;8.81;124.31;0.04;-0.82;5.0;18.021;46.035576;11.130806;;NaN;;899.999;;3 / 24;4788;2022-11-16 23:02:19:609
0.1341;-0.0096;9.7588;0.1329;-0.0176;9.8057;0.0435;-0.0117;0.2853;0.0049;0.011;0.1747;143.0;-15.37;-10.37;8.81;124.31;0.04;-0.82;5.0;18.021;46.035576;11.130806;;NaN;;899.999;;3 / 24;4798;2022-11-16 23:02:19:619
0.1341;-0.0096;9.7588;0.1329;-0.0176;9.8057;0.0435;-0.0117;0.2853;0.0049;0.011;0.1747;143.0;-15.37;-10.37;8.81;124.31;0.04;-0.82;5.0;18.021;46.035576;11.130806;;NaN;;899.999;;3 / 24;4807;2022-11-16 23:02:19:628
0.1341;-0.0096;9.7588;0.1368;-0.0169;9.8056;0.0435;-0.0117;0.2853;0.0049;0.011;0.1747;143.0;-15.37;-10.37;8.81;124.31;0.04;-0.82;5.0;18.021;46.035576;11.130806;;NaN;;899.999;;3 / 24;4818;2022-11-16 23:02:19:639
0.1341;-0.0096;9.7588;0.1368;-0.0169;9.8056;0.0435;-0.0117;0.2853;0.0049;0.011;0.1747;143.0;-17.0;-11.19;8.63;122.68;0.1;-0.8;5.0;18.021;46.035576;11.130806;;NaN;;899.999;;3 / 24;4828;2022-11-16 23:02:19:649
0.1341;-0.0096;9.7588;0.1368;-0.0169;9.8056;-0.0101;0.0338;0.1873;0.0049;0.011;0.1747;143.0;-17.0;-11.19;8.63;122.68;0.1;-0.8;5.0;18.021;46.035576;11.130806;;NaN;;899.999;;3 / 24;4838;2022-11-16 23:02:19:659
0.1341;-0.0096;9.7588;0.1368;-0.0169;9.8056;-0.0101;0.0338;0.1873;0.0049;0.011;0.1747;143.0;-17.0;-11.19;8.63;122.68;0.1;-0.8;5.0;18.021;46.035576;11.130806;;NaN;;899.999;;3 / 24;4848;2022-11-16 23:02:19:669
0.1341;-0.0096;9.7588;0.1368;-0.0169;9.8056;-0.0101;0.0338;0.1873;0.0049;0.011;0.1747;143.0;-17.0;-11.19;8.63;122.68;0.1;-0.8;5.0;18.021;46.035576;11.130806;;NaN;;899.999;;3 / 24;4858;2022-11-16 23:02:19:679
0.0862;-0.0383;9.7588;0.1368;-0.0169;9.8056;-0.0101;0.0338;0.1873;0.0049;0.0098;0.0782;141.0;-17.0;-11.19;8.63;122.68;0.1;-0.8;5.0;18.021;46.035576;11.130806;;NaN;;899.999;;3 / 24;4868;2022-11-16 23:02:19:689
0.0862;-0.0383;9.7588;0.1398;-0.0107;9.8056;-0.0101;0.0338;0.1873;0.0049;0.0098;0.0782;141.0;-17.0;-11.19;8.63;122.68;0.1;-0.8;5.0;18.021;46.035576;11.130806;;NaN;;899.999;;3 / 24;4878;2022-11-16 23:02:19:699
0.0862;-0.0383;9.7588;0.1398;-0.0107;9.8056;-0.0101;0.0338;0.1873;0.0049;0.0098;0.0782;141.0;-17.0;-11.19;8.63;122.68;0.1;-0.8;5.0;18.021;46.035576;11.130806;;NaN;;899.999;;3 / 24;4888;2022-11-16 23:02:19:709
0.0862;-0.0383;9.7588;0.1398;-0.0107;9.8056;0.0173;0.0296;0.1775;0.0049;0.0098;0.0782;141.0;-17.0;-11.19;8.63;122.68;0.1;-0.8;5.0;18.021;46.035576;11.130806;;NaN;;899.999;;3 / 24;4898;2022-11-16 23:02:19:719
0.0862;-0.0383;9.7588;0.1398;-0.0107;9.8056;0.0173;0.0296;0.1775;0.0049;0.0098;0.0782;141.0;-15.37;-11.44;10.31;122.68;0.1;-0.8;5.0;18.021;46.035576;11.130806;;NaN;;899.999;;3 / 24;4908;2022-11-16 23:02:19:729
0.0862;-0.0383;9.7588;0.1398;-0.0107;9.8056;0.0173;0.0296;0.1775;0.0049;0.0098;0.0782;141.0;-15.37;-11.44;10.31;122.68;0.1;-0.8;5.0;18.021;46.035576;11.130806;;NaN;;899.999;;3 / 24;4917;2022-11-16 23:02:19:738
0.1341;-0.0575;9.7492;0.1398;-0.0107;9.8056;0.0173;0.0296;0.1775;0.0049;0.0098;0.0782;141.0;-15.37;-11.44;10.31;122.68;0.1;-0.8;5.0;18.021;46.035576;11.130806;;NaN;;899.999;;3 / 24;4928;2022-11-16 23:02:19:749
0.1341;-0.0575;9.7492;0.1398;-0.0138;9.8056;0.0173;0.0296;0.1775;0.0049;0.0098;0.0782;141.0;-15.37;-11.44;10.31;122.68;0.1;-0.8;5.0;18.021;46.035576;11.130806;;NaN;;899.999;;3 / 24;4938;2022-11-16 23:02:19:759
0.1341;-0.0575;9.7492;0.1398;-0.0138;9.8056;0.0173;0.0296;0.1775;0.0049;0.0098;0.0782;141.0;-15.37;-11.44;10.31;122.68;0.1;-0.8;5.0;18.021;46.035576;11.130806;;NaN;;899.999;;3 / 24;4948;2022-11-16 23:02:19:769
0.1341;-0.0575;9.7492;0.1398;-0.0138;9.8056;0.0056;-0.0057;0.1971;0.0049;0.0098;0.0782;141.0;-15.37;-11.44;10.31;122.68;0.1;-0.8;5.0;18.021;46.035576;11.130806;;NaN;;899.999;;3 / 24;4958;2022-11-16 23:02:19:779
0.1341;-0.0575;9.7492;0.1398;-0.0138;9.8056;0.0056;-0.0057;0.1971;0.0049;0.0098;0.0782;141.0;-14.62;-11.87;10.38;128.37;0.08;-0.82;5.0;18.021;46.035576;11.130806;;NaN;;899.999;;3 / 24;4968;2022-11-16 23:02:19:789
0.1341;-0.0575;9.7492;0.1398;-0.0138;9.8056;0.0056;-0.0057;0.1971;0.0049;0.0098;0.0782;141.0;-14.62;-11.87;10.38;128.37;0.08;-0.82;5.0;18.021;46.035576;11.130806;;NaN;;899.999;;3 / 24;4978;2022-11-16 23:02:19:799
0.1341;-0.0575;9.7492;0.1398;-0.0138;9.8056;0.0056;-0.0057;0.1971;0.0049;0.0098;0.0782;141.0;-14.62;-11.87;10.38;128.37;0.08;-0.82;5.0;18.021;46.035576;11.130806;;NaN;;899.999;;3 / 24;4988;2022-11-16 23:02:19:809
0.1053;0.0192;9.7396;0.1383;-0.0157;9.8056;0.0056;-0.0057;0.1971;0.0;0.0086;-0.2077;141.0;-14.62;-11.87;10.38;128.37;0.08;-0.82;5.0;18.021;46.035576;11.130806;;NaN;;899.999;;3 / 24;4998;2022-11-16 23:02:19:819
0.1053;0.0192;9.7396;0.1383;-0.0157;9.8056;0.0056;-0.0057;0.1971;0.0;0.0086;-0.2077;141.0;-14.62;-11.87;10.38;128.37;0.08;-0.82;5.0;18.021;46.035576;11.130806;;NaN;;899.999;;3 / 24;5007;2022-11-16 23:02:19:828
0.1053;0.0192;9.7396;0.1383;-0.0157;9.8056;0.0056;-0.0057;0.1971;0.0;0.0086;-0.2077;141.0;-14.62;-11.87;10.38;128.37;0.08;-0.82;5.0;18.021;46.035576;11.130806;;NaN;;899.999;;3 / 24;5018;2022-11-16 23:02:19:839
0.1053;0.0192;9.7396;0.1383;-0.0157;9.8056;0.0056;-0.0057;0.1971;0.0;0.0086;-0.2077;141.0;-14.62;-11.87;10.38;128.37;0.08;-0.82;5.0;18.021;46.035576;11.130806;;NaN;;899.999;;3 / 24;5028;2022-11-16 23:02:19:849
0.1053;0.0192;9.7396;0.1383;-0.0157;9.8056;0.0178;-0.0313;0.1775;0.0;0.0086;-0.2077;141.0;-14.06;-11.81;11.19;128.37;0.08;-0.82;5.0;18.021;46.035576;11.130806;;NaN;;899.999;;3 / 24;5038;2022-11-16 23:02:19:859
0.1053;0.0192;9.7396;0.1383;-0.0157;9.8056;0.0178;-0.0313;0.1775;0.0;0.0086;-0.2077;141.0;-14.06;-11.81;11.19;128.37;0.08;-0.82;5.0;18.021;46.035576;11.130806;;NaN;;899.999;;3 / 24;5048;2022-11-16 23:02:19:869
0.1724;0.0192;9.7013;0.1399;-0.0157;9.8056;0.0178;-0.0313;0.1775;0.0;0.0086;-0.2077;141.0;-14.06;-11.81;11.19;128.37;0.08;-0.82;5.0;18.021;46.035576;11.130806;;NaN;;899.999;;3 / 24;5058;2022-11-16 23:02:19:879
0.1724;0.0192;9.7013;0.1399;-0.0157;9.8056;0.0178;-0.0313;0.1775;0.0;0.0086;-0.2077;141.0;-14.06;-11.81;11.19;128.37;0.08;-0.82;5.0;18.021;46.035576;11.130806;;NaN;;899.999;;3 / 24;5068;2022-11-16 23:02:19:889
0.1724;0.0192;9.7013;0.1399;-0.0157;9.8056;0.0178;-0.0313;0.1775;0.0;0.0086;-0.2077;141.0;-14.06;-11.81;11.19;128.37;0.08;-0.82;5.0;18.021;46.035576;11.130806;;NaN;;899.999;;3 / 24;5078;2022-11-16 23:02:19:899
0.1724;0.0192;9.7013;0.1399;-0.0157;9.8056;0.0178;-0.0313;0.1775;0.0;0.0086;-0.2077;141.0;-14.06;-11.81;11.19;128.37;0.08;-0.82;5.0;17.361;46.035576;11.130806;;NaN;;899.999;;3 / 24;5088;2022-11-16 23:02:19:909
0.1724;0.0192;9.7013;0.1399;-0.0157;9.8056;0.0178;-0.0313;0.1775;0.0;0.0086;-0.2077;141.0;-14.06;-11.81;11.19;128.37;0.08;-0.82;5.0;17.361;46.035576;11.130806;;NaN;;899.999;;3 / 24;5098;2022-11-16 23:02:19:919
0.1724;0.0192;9.7013;0.1399;-0.0157;9.8056;0.0178;-0.0313;0.1775;0.0;0.0086;-0.2077;141.0;-13.81;-11.44;11.5;127.77;0.09;-0.82;5.0;17.361;46.035576;11.130806;;NaN;;899.999;;3 / 24;5108;2022-11-16 23:02:19:929
0.1724;0.0192;9.7013;0.1391;-0.0172;9.8056;0.0276;0.0369;0.1677;0.0;0.0086;-0.2077;141.0;-13.81;-11.44;11.5;127.77;0.09;-0.82;5.0;17.361;46.035576;11.130806;;NaN;;899.999;;3 / 24;5118;2022-11-16 23:02:19:939
0.0575;0.0287;9.7875;0.1391;-0.0172;9.8056;0.0276;0.0369;0.1677;-0.0073;0.0024;-0.3995;141.0;-13.81;-11.44;11.5;127.77;0.09;-0.82;5.0;17.361;46.035576;11.130806;;NaN;;899.999;;3 / 24;5128;2022-11-16 23:02:19:949
0.0575;0.0287;9.7875;0.1391;-0.0172;9.8056;0.0276;0.0369;0.1677;-0.0073;0.0024;-0.3995;141.0;-13.81;-11.44;11.5;127.77;0.09;-0.82;5.0;17.361;46.035576;11.130806;;NaN;;899.999;;3 / 24;5138;2022-11-16 23:02:19:959
0.0575;0.0287;9.7875;0.1391;-0.0172;9.8056;0.0276;0.0369;0.1677;-0.0073;0.0024;-0.3995;141.0;-13.81;-11.44;11.5;127.77;0.09;-0.82;5.0;17.361;46.035576;11.130806;;NaN;;899.999;;3 / 24;5148;2022-11-16 23:02:19:969
0.0575;0.0287;9.7875;0.1391;-0.0172;9.8056;0.0276;0.0369;0.1677;-0.0073;0.0024;-0.3995;141.0;-13.81;-11.44;11.5;127.77;0.09;-0.82;5.0;17.361;46.035576;11.130806;;NaN;;899.999;;3 / 24;5158;2022-11-16 23:02:19:979
0.0575;0.0287;9.7875;0.1391;-0.0172;9.8056;0.0276;0.0369;0.1677;-0.0073;0.0024;-0.3995;141.0;-13.81;-11.44;11.5;127.77;0.09;-0.82;5.0;17.361;46.035576;11.130806;;NaN;;899.999;;3 / 24;5168;2022-11-16 23:02:19:989
0.0575;0.0287;9.7875;0.1402;-0.013;9.8056;0.0276;0.0369;0.1677;-0.0073;0.0024;-0.3995;141.0;-14.19;-11.87;11.63;127.77;0.09;-0.82;5.0;17.361;46.035576;11.130806;;NaN;;899.999;;3 / 24;5178;2022-11-16 23:02:19:999
0.1341;0.0;9.7492;0.1402;-0.013;9.8056;0.0276;0.0369;0.1677;-0.0073;0.0024;-0.3995;141.0;-14.19;-11.87;11.63;127.77;0.09;-0.82;5.0;17.361;46.035576;11.130806;;NaN;;899.999;;3 / 24;5188;2022-11-16 23:02:20:009
0.1341;0.0;9.7492;0.1402;-0.013;9.8056;0.0166;0.0126;0.2167;-0.0073;0.0024;-0.3995;141.0;-14.19;-11.87;11.63;127.77;0.09;-0.82;5.0;17.361;46.035576;11.130806;;NaN;;899.999;;3 / 24;5198;2022-11-16 23:02:20:019
0.1341;0.0;9.7492;0.1402;-0.013;9.8056;0.0166;0.0126;0.2167;-0.0073;0.0024;-0.3995;141.0;-14.19;-11.87;11.63;127.77;0.09;-0.82;5.0;17.361;46.035576;11.130806;;NaN;;899.999;;3 / 24;5208;2022-11-16 23:02:20:029
0.1341;0.0;9.7492;0.1402;-0.013;9.8056;0.0166;0.0126;0.2167;-0.0073;0.0024;-0.3995;141.0;-14.19;-11.87;11.63;127.77;0.09;-0.82;5.0;17.361;46.035576;11.130806;;NaN;;899.999;;3 / 24;5218;2022-11-16 23:02:20:039
0.1341;0.0;9.7492;0.1402;-0.013;9.8056;0.0166;0.0126;0.2167;-0.0073;0.0024;-0.3995;140.0;-14.19;-11.87;11.63;127.77;0.09;-0.82;5.0;17.361;46.035576;11.130806;;NaN;;899.999;;3 / 24;5228;2022-11-16 23:02:20:049
0.1341;0.0;9.7492;0.144;-0.0107;9.8055;0.0166;0.0126;0.2167;-0.0073;0.0024;-0.3995;140.0;-14.19;-11.87;11.63;127.77;0.09;-0.82;5.0;17.361;46.035576;11.130806;;NaN;;899.999;;3 / 24;5238;2022-11-16 23:02:20:059
0.1341;0.0;9.7492;0.144;-0.0107;9.8055;0.0166;0.0126;0.2167;-0.0073;0.0024;-0.3995;140.0;-14.69;-11.06;11.44;125.94;0.06;-0.84;5.0;17.361;46.035576;11.130806;;NaN;;899.999;;3 / 24;5248;2022-11-16 23:02:20:069
0.0766;0.0;9.7396;0.144;-0.0107;9.8055;-0.0147;0.0378;0.1873;-0.0049;0.0012;-0.0782;140.0;-14.69;-11.06;11.44;125.94;0.06;-0.84;5.0;17.361;46.035576;11.130806;;NaN;;899.999;;3 / 24;5258;2022-11-16 23:02:20:079
0.0766;0.0;9.7396;0.144;-0.0107;9.8055;-0.0147;0.0378;0.1873;-0.0049;0.0012;-0.0782;140.0;-14.69;-11.06;11.44;125.94;0.06;-0.84;5.0;17.361;46.035576;11.130806;;NaN;;899.999;;3 / 24;5268;2022-11-16 23:02:20:089
0.0766;0.0;9.7396;0.144;-0.0107;9.8055;-0.0147;0.0378;0.1873;-0.0049;0.0012;-0.0782;140.0;-14.69;-11.06;11.44;125.94;0.06;-0.84;5.0;17.361;46.035576;11.130806;;NaN;;899.999;;3 / 24;5278;2022-11-16 23:02:20:099
0.0766;0.0;9.7396;0.144;-0.0107;9.8055;-0.0147;0.0378;0.1873;-0.0049;0.0012;-0.0782;140.0;-14.69;-11.06;11.44;125.94;0.06;-0.84;5.0;17.361;46.035576;11.130806;;NaN;;899.999;;3 / 24;5288;2022-11-16 23:02:20:109
0.0766;0.0;9.7396;0.1407;-0.0099;9.8056;-0.0147;0.0378;0.1873;-0.0049;0.0012;-0.0782;140.0;-14.69;-11.06;11.44;125.94;0.06;-0.84;5.0;17.361;46.035576;11.130806;;NaN;;899.999;;3 / 24;5298;2022-11-16 23:02:20:119
0.0766;0.0;9.7396;0.1407;-0.0099;9.8056;-0.0147;0.0378;0.1873;-0.0049;0.0012;-0.0782;140.0;-14.69;-11.06;11.44;125.94;0.06;-0.84;5.0;17.361;46.035576;11.130806;;NaN;;899.999;;3 / 24;5308;2022-11-16 23:02:20:129
0.1245;-0.0192;9.7683;0.1407;-0.0099;9.8056;-0.0147;0.0378;0.1873;-0.0049;0.0012;-0.0782;140.0;-13.69;-10.81;11.63;125.94;0.06;-0.84;5.0;17.361;46.035576;11.130806;;NaN;;899.999;;3 / 24;5317;2022-11-16 23:02:20:138
0.1245;-0.0192;9.7683;0.1407;-0.0099;9.8056;-0.0124;-0.0088;0.1971;-0.0049;0.0012;-0.0782;140.0;-13.69;-10.81;11.63;125.94;0.06;-0.84;5.0;17.361;46.035576;11.130806;;NaN;;899.999;;3 / 24;5327;2022-11-16 23:02:20:148
0.1245;-0.0192;9.7683;0.1407;-0.0099;9.8056;-0.0124;-0.0088;0.1971;-0.0049;0.0012;-0.0782;140.0;-13.69;-10.81;11.63;125.94;0.06;-0.84;5.0;17.361;46.035576;11.130806;;NaN;;899.999;;3 / 24;5338;2022-11-16 23:02:20:159
0.1245;-0.0192;9.7683;0.1407;-0.0099;9.8056;-0.0124;-0.0088;0.1971;-0.0049;0.0012;-0.0782;140.0;-13.69;-10.81;11.63;125.94;0.06;-0.84;5.0;17.361;46.035576;11.130806;;NaN;;899.999;;3 / 24;5348;2022-11-16 23:02:20:169
0.1245;-0.0192;9.7683;0.1414;-0.0142;9.8056;-0.0124;-0.0088;0.1971;-0.0049;0.0012;-0.0782;140.0;-13.69;-10.81;11.63;125.94;0.06;-0.84;5.0;17.361;46.035576;11.130806;;NaN;;899.999;;3 / 24;5358;2022-11-16 23:02:20:179
0.1245;-0.0192;9.7683;0.1414;-0.0142;9.8056;-0.0124;-0.0088;0.1971;-0.0049;0.0012;-0.0782;140.0;-13.69;-10.81;11.63;125.94;0.06;-0.84;5.0;17.361;46.035576;11.130806;;NaN;;899.999;;3 / 24;5368;2022-11-16 23:02:20:189
0.1245;-0.0192;9.7683;0.1414;-0.0142;9.8056;-0.0124;-0.0088;0.1971;-0.0049;0.0012;-0.0782;140.0;-13.69;-10.81;11.63;125.94;0.06;-0.84;5.0;17.361;46.035576;11.130806;;NaN;;899.999;;3 / 24;5378;2022-11-16 23:02:20:199
0.1628;0.0;9.7971;0.1414;-0.0142;9.8056;-0.0124;-0.0088;0.1971;0.0;0.0;0.0;140.0;-14.0;-11.44;11.5;127.78;0.08;-0.83;5.0;17.361;46.035576;11.130806;;NaN;;899.999;;3 / 24;5388;2022-11-16 23:02:20:209
0.1628;0.0;9.7971;0.1414;-0.0142;9.8056;-0.0223;-0.0038;0.1775;0.0;0.0;0.0;140.0;-14.0;-11.44;11.5;127.78;0.08;-0.83;5.0;17.361;46.035576;11.130806;;NaN;;899.999;;3 / 24;5398;2022-11-16 23:02:20:219
0.1628;0.0;9.7971;0.1414;-0.0142;9.8056;-0.0223;-0.0038;0.1775;0.0;0.0;0.0;140.0;-14.0;-11.44;11.5;127.78;0.08;-0.83;5.0;17.361;46.035576;11.130806;;NaN;;899.999;;3 / 24;5408;2022-11-16 23:02:20:229
0.1628;0.0;9.7971;0.1365;-0.0131;9.8056;-0.0223;-0.0038;0.1775;0.0;0.0;0.0;140.0;-14.0;-11.44;11.5;127.78;0.08;-0.83;5.0;17.361;46.035576;11.130806;;NaN;;899.999;;3 / 24;5418;2022-11-16 23:02:20:239
0.1628;0.0;9.7971;0.1365;-0.0131;9.8056;-0.0223;-0.0038;0.1775;0.0;0.0;0.0;140.0;-14.0;-11.44;11.5;127.78;0.08;-0.83;5.0;17.361;46.035576;11.130806;;NaN;;899.999;;3 / 24;5428;2022-11-16 23:02:20:249
0.1628;0.0;9.7971;0.1365;-0.0131;9.8056;-0.0223;-0.0038;0.1775;0.0;0.0;0.0;140.0;-14.0;-11.44;11.5;127.78;0.08;-0.83;5.0;17.463;46.035576;11.130806;;NaN;;899.999;;3 / 24;5438;2022-11-16 23:02:20:259
0.1245;0.0192;9.7492;0.1365;-0.0131;9.8056;-0.0223;-0.0038;0.1775;0.0;0.0;0.0;140.0;-14.0;-11.44;11.5;127.78;0.08;-0.83;5.0;17.463;46.035576;11.130806;;NaN;;899.999;;3 / 24;5448;2022-11-16 23:02:20:269
0.1245;0.0192;9.7492;0.1365;-0.0131;9.8056;0.0293;0.0291;0.1382;0.0;0.0;0.0;140.0;-13.87;-11.44;11.38;127.78;0.08;-0.83;5.0;17.463;46.035576;11.130806;;NaN;;899.999;;3 / 24;5458;2022-11-16 23:02:20:279
0.1245;0.0192;9.7492;0.1365;-0.0131;9.8056;0.0293;0.0291;0.1382;0.0;0.0;0.0;140.0;-13.87;-11.44;11.38;127.78;0.08;-0.83;5.0;17.463;46.035576;11.130806;;NaN;;899.999;;3 / 24;5468;2022-11-16 23:02:20:289
0.1245;0.0192;9.7492;0.1381;-0.0103;9.8056;0.0293;0.0291;0.1382;0.0;0.0;0.0;140.0;-13.87;-11.44;11.38;127.78;0.08;-0.83;5.0;17.463;46.035576;11.130806;;NaN;;899.999;;3 / 24;5478;2022-11-16 23:02:20:299
0.1245;0.0192;9.7492;0.1381;-0.0103;9.8056;0.0293;0.0291;0.1382;0.0;0.0;0.0;140.0;-13.87;-11.44;11.38;127.78;0.08;-0.83;5.0;17.463;46.035576;11.130806;;NaN;;899.999;;3 / 24;5487;2022-11-16 23:02:20:308
0.1245;0.0192;9.7492;0.1381;-0.0103;9.8056;0.0293;0.0291;0.1382;0.0;0.0;0.0;140.0;-13.87;-11.44;11.38;127.78;0.08;-0.83;5.0;17.463;46.035576;11.130806;;NaN;;899.999;;3 / 24;5498;2022-11-16 23:02:20:319
0.1245;0.0192;9.7492;0.1381;-0.0103;9.8056;0.0293;0.0291;0.1382;0.0;0.0;0.0;140.0;-13.87;-11.44;11.38;127.78;0.08;-0.83;5.0;17.463;46.035576;11.130806;;NaN;;899.999;;3 / 24;5508;2022-11-16 23:02:20:329
0.1437;-0.0383;9.7396;0.1381;-0.0103;9.8056;0.0077;-0.005;0.2167;-0.0012;0.0208;-0.1344;140.0;-13.87;-11.44;11.38;127.78;0.08;-0.83;5.0;17.463;46.035576;11.130806;;NaN;;899.999;;3 / 24;5518;2022-11-16 23:02:20:339
0.1437;-0.0383;9.7396;0.1381;-0.0103;9.8056;0.0077;-0.005;0.2167;-0.0012;0.0208;-0.1344;140.0;-13.5;-11.25;11.44;129.88;0.06;-0.81;5.0;17.463;46.035576;11.130806;;NaN;;899.999;;3 / 24;5528;2022-11-16 23:02:20:349
0.1437;-0.0383;9.7396;0.14;-0.0138;9.8056;0.0077;-0.005;0.2167;-0.0012;0.0208;-0.1344;140.0;-13.5;-11.25;11.44;129.88;0.06;-0.81;5.0;17.463;46.035576;11.130806;;NaN;;899.999;;3 / 24;5538;2022-11-16 23:02:20:359
0.1437;-0.0383;9.7396;0.14;-0.0138;9.8056;0.0077;-0.005;0.2167;-0.0012;0.0208;-0.1344;140.0;-13.5;-11.25;11.44;129.88;0.06;-0.81;5.0;17.463;46.035576;11.130806;;NaN;;899.999;;3 / 24;5548;2022-11-16 23:02:20:369
0.1437;-0.0383;9.7396;0.14;-0.0138;9.8056;0.0077;-0.005;0.2167;-0.0012;0.0208;-0.1344;140.0;-13.5;-11.25;11.44;129.88;0.06;-0.81;5.0;17.463;46.035576;11.130806;;NaN;;899.999;;3 / 24;5558;2022-11-16 23:02:20:379
0.1437;-0.0383;9.7396;0.14;-0.0138;9.8056;0.0077;-0.005;0.2167;-0.0012;0.0208;-0.1344;140.0;-13.5;-11.25;11.44;129.88;0.06;-0.81;5.0;17.463;46.035576;11.130806;;NaN;;899.999;;3 / 24;5568;2022-11-16 23:02:20:389
0.1245;0.0;9.7779;0.14;-0.0138;9.8056;-0.0094;0.0107;0.2069;-0.0012;0.0208;-0.1344;140.0;-13.5;-11.25;11.44;129.88;0.06;-0.81;5.0;17.463;46.035576;11.130806;;NaN;;899.999;;3 / 24;5578;2022-11-16 23:02:20:399
0.1245;0.0;9.7779;0.14;-0.0138;9.8056;-0.0094;0.0107;0.2069;-0.0012;0.0208;-0.1344;138.0;-13.5;-11.25;11.44;129.88;0.06;-0.81;5.0;17.463;46.035576;11.130806;;NaN;;899.999;;3 / 24;5588;2022-11-16 23:02:20:409
0.1245;0.0;9.7779;0.1369;-0.01;9.8056;-0.0094;0.0107;0.2069;-0.0012;0.0208;-0.1344;138.0;-13.87;-11.44;12.13;129.88;0.06;-0.81;5.0;17.463;46.035576;11.130806;;NaN;;899.999;;3 / 24;5598;2022-11-16 23:02:20:419
0.1245;0.0;9.7779;0.1369;-0.01;9.8056;-0.0094;0.0107;0.2069;-0.0012;0.0208;-0.1344;138.0;-13.87;-11.44;12.13;129.88;0.06;-0.81;5.0;17.463;46.035576;11.130806;;NaN;;899.999;;3 / 24;5608;2022-11-16 23:02:20:429
0.1245;0.0;9.7779;0.1369;-0.01;9.8056;-0.0094;0.0107;0.2069;-0.0012;0.0208;-0.1344;138.0;-13.87;-11.44;12.13;129.88;0.06;-0.81;5.0;17.463;46.035576;11.130806;;NaN;;899.999;;3 / 24;5618;2022-11-16 23:02:20:439
0.1245;0.0;9.7779;0.1369;-0.01;9.8056;-0.0094;0.0107;0.2069;-0.0012;0.0208;-0.1344;138.0;-13.87;-11.44;12.13;129.88;0.06;-0.81;5.0;17.463;46.035576;11.130806;;NaN;;899.999;;3 / 24;5628;2022-11-16 23:02:20:449
0.1245;0.0;9.7779;0.1369;-0.01;9.8056;-0.0094;0.0107;0.2069;-0.0012;0.0208;-0.1344;138.0;-13.87;-11.44;12.13;129.88;0.06;-0.81;5.0;17.463;46.035576;11.130806;;NaN;;899.999;;3 / 24;5638;2022-11-16 23:02:20:459
0.1724;-0.0766;9.7396;0.1369;-0.01;9.8056;-0.0094;0.0107;0.2069;0.0;0.0;0.0;138.0;-13.87;-11.44;12.13;129.88;0.06;-0.81;5.0;17.463;46.035576;11.130806;;NaN;;899.999;;3 / 24;5648;2022-11-16 23:02:20:469
0.1724;-0.0766;9.7396;0.1384;-0.0127;9.8056;0.0184;0.0323;0.2167;0.0;0.0;0.0;138.0;-13.87;-11.44;12.13;129.88;0.06;-0.81;5.0;17.463;46.035576;11.130806;;NaN;;899.999;;3 / 24;5658;2022-11-16 23:02:20:479
0.1724;-0.0766;9.7396;0.1384;-0.0127;9.8056;0.0184;0.0323;0.2167;0.0;0.0;0.0;138.0;-13.69;-11.19;11.69;127.79;0.07;-0.81;5.0;17.463;46.035576;11.130806;;NaN;;899.999;;3 / 24;5668;2022-11-16 23:02:20:489
0.1724;-0.0766;9.7396;0.1384;-0.0127;9.8056;0.0184;0.0323;0.2167;0.0;0.0;0.0;138.0;-13.69;-11.19;11.69;127.79;0.07;-0.81;5.0;17.463;46.035576;11.130806;;NaN;;899.999;;3 / 24;5678;2022-11-16 23:02:20:499
0.1724;-0.0766;9.7396;0.1384;-0.0127;9.8056;0.0184;0.0323;0.2167;0.0;0.0;0.0;138.0;-13.69;-11.19;11.69;127.79;0.07;-0.81;5.0;17.463;46.035576;11.130806;;NaN;;899.999;;3 / 24;5688;2022-11-16 23:02:20:509
0.1724;-0.0766;9.7396;0.1384;-0.0127;9.8056;0.0184;0.0323;0.2167;0.0;0.0;0.0;138.0;-13.69;-11.19;11.69;127.79;0.07;-0.81;5.0;17.463;46.035576;11.130806;;NaN;;899.999;;3 / 24;5697;2022-11-16 23:02:20:518
0.1341;-0.0287;9.7588;0.1384;-0.0127;9.8056;0.0184;0.0323;0.2167;0.0;0.0;0.0;133.0;-13.69;-11.19;11.69;127.79;0.07;-0.81;5.0;17.463;46.035576;11.130806;;NaN;;899.999;;3 / 24;5708;2022-11-16 23:02:20:529
0.1341;-0.0287;9.7588;0.1346;-0.0092;9.8057;0.0184;0.0323;0.2167;0.0;0.0;0.0;133.0;-13.69;-11.19;11.69;127.79;0.07;-0.81;5.0;17.463;46.035576;11.130806;;NaN;;899.999;;3 / 24;5718;2022-11-16 23:02:20:539
0.1341;-0.0287;9.7588;0.1346;-0.0092;9.8057;0.0184;0.0323;0.2167;0.0;0.0;0.0;133.0;-13.69;-11.19;11.69;127.79;0.07;-0.81;5.0;17.463;46.035576;11.130806;;NaN;;899.999;;3 / 24;5728;2022-11-16 23:02:20:549
0.1341;-0.0287;9.7588;0.1346;-0.0092;9.8057;0.0666;-0.0284;0.1873;0.0;0.0;0.0;133.0;-14.37;-11.5;11.88;127.79;0.07;-0.81;5.0;17.463;46.035576;11.130806;;NaN;;899.999;;3 / 24;5738;2022-11-16 23:02:20:559
0.1341;-0.0287;9.7588;0.1346;-0.0092;9.8057;0.0666;-0.0284;0.1873;0.0;0.0;0.0;133.0;-14.37;-11.5;11.88;127.79;0.07;-0.81;5.0;17.463;46.035576;11.130806;;NaN;;899.999;;3 / 24;5748;2022-11-16 23:02:20:569
0.1341;-0.0287;9.7588;0.1346;-0.0092;9.8057;0.0666;-0.0284;0.1873;0.0;0.0;0.0;133.0;-14.37;-11.5;11.88;127.79;0.07;-0.81;5.0;17.463;46.035576;11.130806;;NaN;;899.999;;3 / 24;5758;2022-11-16 23:02:20:579
0.1341;-0.0287;9.7588;0.1346;-0.0092;9.8057;0.0666;-0.0284;0.1873;0.0;0.0;0.0;133.0;-14.37;-11.5;11.88;127.79;0.07;-0.81;5.0;17.271;46.035576;11.130806;;NaN;;899.999;;3 / 24;5768;2022-11-16 23:02:20:589
