sep=;
ACCELEROMETER X (m/s²);ACCELEROMETER Y (m/s²);ACCELEROMETER Z (m/s²);GRAVITY X (m/s²);GRAVITY Y (m/s²);GRAVITY Z (m/s²);LINEAR ACCELERATION X (m/s²);LINEAR ACCELERATION Y (m/s²);LINEAR ACCELERATION Z (m/s²);GYROSCOPE X (°/s);GYROSCOPE Y (°/s);GYROSCOPE Z (°/s);LIGHT (lux);MAGNETIC FIELD X (μT);MAGNETIC FIELD Y (μT);MAGNETIC FIELD Z (μT);ORIENTATION Z (azimuth °);ORIENTATION X (pitch °);ORIENTATION Y (roll °);PROXIMITY (m);SOUND LEVEL (dB);LOCATION Latitude : ;LOCATION Longitude : ;LOCATION Altitude ( m);LOCATION Altitude-google ( m);LOCATION Speed ( m/s);LOCATION Accuracy ( m);LOCATION ORIENTATION (°);Satellites in range;Time since start in ms ;YYYY-MO-DD HH-MI-SS_SSS
-0.3661;0.6706;9.4337;-0.2844;0.6804;9.7788;-0.1739;-0.2041;-0.0608;-0.19;-4.68;1.14;237.5;21.75;-1.5;-25.12;272.15;-4.01;1.72;5.0;40.116;;;;NaN;;;;0 / 0;21;2022-11-17 14:19:04:931
-0.3661;0.6706;9.4337;-0.293;0.6563;9.7802;-0.1739;-0.2041;-0.0608;-0.19;-4.68;1.14;237.5;21.75;-1.0;-25.81;272.29;-3.98;1.67;5.0;40.116;;;;NaN;;;;0 / 0;31;2022-11-17 14:19:04:941
-0.3661;0.6706;9.4337;-0.293;0.6563;9.7802;-0.1739;-0.2041;-0.0608;-0.19;-4.68;1.14;237.5;21.75;-1.0;-25.81;272.29;-3.98;1.67;5.0;40.116;;;;NaN;;;;0 / 0;42;2022-11-17 14:19:04:952
-0.3661;0.6706;9.4337;-0.293;0.6563;9.7802;-0.1579;-0.0827;-0.0235;-0.19;-4.68;1.14;237.5;21.75;-1.0;-25.81;272.29;-3.98;1.67;5.0;40.116;;;;NaN;;;;0 / 0;51;2022-11-17 14:19:04:961
-0.3661;0.6706;9.4337;-0.293;0.6563;9.7802;-0.1579;-0.0827;-0.0235;-0.19;-4.68;1.14;237.5;21.75;-1.0;-25.81;272.29;-3.98;1.67;5.0;40.495;;;;NaN;;;;0 / 0;67;2022-11-17 14:19:04:977
-0.3661;0.6706;9.4337;-0.293;0.6563;9.7802;-0.1579;-0.0827;-0.0235;-0.19;-4.68;1.14;237.5;21.75;-1.0;-25.81;272.29;-3.98;1.67;5.0;40.495;;;;NaN;;;;0 / 0;72;2022-11-17 14:19:04:982
-0.3661;0.6706;9.4337;-0.293;0.6563;9.7802;-0.1579;-0.0827;-0.0235;-0.19;-4.68;1.14;237.5;21.75;-1.0;-25.81;272.29;-3.98;1.67;5.0;40.495;;;;NaN;;;;0 / 0;82;2022-11-17 14:19:04:992
-0.3661;0.6706;9.4337;-0.293;0.6563;9.7802;-0.1579;-0.0827;-0.0235;-0.19;-4.68;1.14;237.5;21.75;-1.0;-25.81;272.29;-3.98;1.67;5.0;40.495;;;;NaN;;;;0 / 0;91;2022-11-17 14:19:05:001
-0.3661;0.6706;9.4337;-0.293;0.6563;9.7802;-0.1579;-0.0827;-0.0235;-0.19;-4.68;1.14;237.5;21.75;-1.0;-25.81;272.29;-3.98;1.67;5.0;40.495;;;;NaN;;;;0 / 0;102;2022-11-17 14:19:05:012
-0.3661;0.6706;9.4337;-0.293;0.6563;9.7802;-0.1579;-0.0827;-0.0235;-0.19;-4.68;1.14;237.5;21.75;-1.0;-25.81;272.29;-3.98;1.67;5.0;40.495;;;;NaN;;;;0 / 0;111;2022-11-17 14:19:05:021
-0.3661;0.6706;9.4337;-0.293;0.6563;9.7802;-0.1579;-0.0827;-0.0235;-0.19;-4.68;1.14;237.5;21.75;-1.0;-25.81;272.29;-3.98;1.67;5.0;40.495;;;;NaN;;;;0 / 0;121;2022-11-17 14:19:05:031
-0.3661;0.6706;9.4337;-0.2593;0.6097;9.7842;-0.1579;-0.0827;-0.0235;-0.19;-4.68;1.14;237.5;21.75;-1.0;-25.81;272.29;-3.98;1.67;5.0;40.495;;;;NaN;;;;0 / 0;131;2022-11-17 14:19:05:041
-0.3661;0.6706;9.4337;-0.2593;0.6097;9.7842;-0.1579;-0.0827;-0.0235;-0.19;-4.68;1.14;237.5;21.75;-1.0;-25.81;272.29;-3.98;1.67;5.0;40.495;;;;NaN;;;;0 / 0;141;2022-11-17 14:19:05:051
-0.3416;0.6541;9.6973;-0.2593;0.6097;9.7842;-0.0767;0.0426;-0.0956;-0.01;-0.5;0.41;237.5;22.13;-1.62;-25.5;268.91;-3.56;1.52;5.0;40.495;;;;NaN;;;;0 / 0;159;2022-11-17 14:19:05:069
-0.3416;0.6541;9.6973;-0.2593;0.6097;9.7842;-0.0767;0.0426;-0.0956;-0.01;-0.5;0.41;237.5;22.13;-1.62;-25.5;268.91;-3.56;1.52;5.0;40.495;;;;NaN;;;;0 / 0;162;2022-11-17 14:19:05:072
-0.3416;0.6541;9.6973;-0.2593;0.6097;9.7842;-0.0767;0.0426;-0.0956;-0.01;-0.5;0.41;237.5;22.13;-1.62;-25.5;268.91;-3.56;1.52;5.0;40.495;;;;NaN;;;;0 / 0;172;2022-11-17 14:19:05:082
-0.3416;0.6541;9.6973;-0.2593;0.6097;9.7842;-0.0767;0.0426;-0.0956;-0.01;-0.5;0.41;237.5;22.13;-1.62;-25.5;268.91;-3.56;1.52;5.0;40.495;;;;NaN;;;;0 / 0;182;2022-11-17 14:19:05:092
-0.3416;0.6541;9.6973;-0.2593;0.6097;9.7842;-0.0767;0.0426;-0.0956;-0.01;-0.5;0.41;237.5;22.13;-1.62;-25.5;268.91;-3.56;1.52;5.0;40.495;;;;NaN;;;;0 / 0;192;2022-11-17 14:19:05:102
-0.3416;0.6541;9.6973;-0.2593;0.6097;9.7842;-0.0767;0.0426;-0.0956;-0.01;-0.5;0.41;237.5;22.13;-1.62;-25.5;268.91;-3.56;1.52;5.0;40.495;;;;NaN;;;;0 / 0;201;2022-11-17 14:19:05:111
-0.3416;0.6541;9.6973;-0.2593;0.6097;9.7842;-0.0767;0.0426;-0.0956;-0.01;-0.5;0.41;236.1;22.13;-1.62;-25.5;268.91;-3.56;1.52;5.0;40.495;;;;NaN;;;;0 / 0;217;2022-11-17 14:19:05:127
-0.3416;0.6541;9.6973;-0.2593;0.6097;9.7842;-0.0767;0.0426;-0.0956;-0.01;-0.5;0.41;236.1;22.13;-1.62;-25.5;268.91;-3.56;1.52;5.0;40.495;;;;NaN;;;;0 / 0;222;2022-11-17 14:19:05:132
-0.3416;0.6541;9.6973;-0.2337;0.5841;9.7864;-0.0767;0.0426;-0.0956;-0.01;-0.5;0.41;236.1;22.13;-1.62;-25.5;268.91;-3.56;1.52;5.0;40.495;;;;NaN;;;;0 / 0;231;2022-11-17 14:19:05:141
-0.3416;0.6541;9.6973;-0.2337;0.5841;9.7864;-0.0767;0.0426;-0.0956;-0.01;-0.5;0.41;236.1;22.13;-1.62;-25.5;268.91;-3.56;1.52;5.0;40.495;;;;NaN;;;;0 / 0;242;2022-11-17 14:19:05:152
-0.3416;0.6541;9.6973;-0.2337;0.5841;9.7864;-0.0767;0.0426;-0.0956;-0.01;-0.5;0.41;236.1;22.13;-1.62;-25.5;268.91;-3.56;1.52;5.0;40.495;;;;NaN;;;;0 / 0;252;2022-11-17 14:19:05:162
-0.3416;0.6541;9.6973;-0.2337;0.5841;9.7864;-0.0767;0.0426;-0.0956;-0.01;-0.5;0.41;236.1;22.13;-1.62;-25.5;268.91;-3.56;1.52;5.0;40.495;;;;NaN;;;;0 / 0;261;2022-11-17 14:19:05:171
-0.3416;0.6541;9.6973;-0.2337;0.5841;9.7864;-0.1498;-0.135;-0.1172;-0.01;-0.5;0.41;236.1;21.56;-1.31;-25.81;268.91;-3.56;1.52;5.0;40.495;;;;NaN;;;;0 / 0;272;2022-11-17 14:19:05:182
-0.4003;0.4435;9.5052;-0.2337;0.5841;9.7864;-0.1498;-0.135;-0.1172;0.57;-1.72;0.13;236.1;21.56;-1.31;-25.81;268.91;-3.56;1.52;5.0;40.495;;;;NaN;;;;0 / 0;282;2022-11-17 14:19:05:192
-0.4003;0.4435;9.5052;-0.2337;0.5841;9.7864;-0.1498;-0.135;-0.1172;0.57;-1.72;0.13;236.1;21.56;-1.31;-25.81;268.91;-3.56;1.52;5.0;40.495;;;;NaN;;;;0 / 0;292;2022-11-17 14:19:05:202
-0.4003;0.4435;9.5052;-0.2337;0.5841;9.7864;-0.1498;-0.135;-0.1172;0.57;-1.72;0.13;236.1;21.56;-1.31;-25.81;268.91;-3.56;1.52;5.0;40.495;;;;NaN;;;;0 / 0;301;2022-11-17 14:19:05:211
-0.4003;0.4435;9.5052;-0.2337;0.5841;9.7864;-0.1498;-0.135;-0.1172;0.57;-1.72;0.13;236.1;21.56;-1.31;-25.81;268.91;-3.56;1.52;5.0;40.495;;;;NaN;;;;0 / 0;311;2022-11-17 14:19:05:221
-0.4003;0.4435;9.5052;-0.2337;0.5841;9.7864;-0.1498;-0.135;-0.1172;0.57;-1.72;0.13;236.1;21.56;-1.31;-25.81;268.91;-3.56;1.52;5.0;40.495;;;;NaN;;;;0 / 0;321;2022-11-17 14:19:05:231
-0.4003;0.4435;9.5052;-0.2091;0.5648;9.7881;-0.1498;-0.135;-0.1172;0.57;-1.72;0.13;236.1;21.56;-1.31;-25.81;268.91;-3.56;1.52;5.0;40.495;;;;NaN;;;;0 / 0;333;2022-11-17 14:19:05:243
-0.4003;0.4435;9.5052;-0.2091;0.5648;9.7881;-0.1498;-0.135;-0.1172;0.57;-1.72;0.13;236.1;21.56;-1.31;-25.81;268.91;-3.56;1.52;5.0;40.495;;;;NaN;;;;0 / 0;342;2022-11-17 14:19:05:252
-0.4003;0.4435;9.5052;-0.2091;0.5648;9.7881;-0.1498;-0.135;-0.1172;0.57;-1.72;0.13;236.1;21.56;-1.31;-25.81;268.91;-3.56;1.52;5.0;40.495;;;;NaN;;;;0 / 0;351;2022-11-17 14:19:05:261
-0.4003;0.4435;9.5052;-0.2091;0.5648;9.7881;-0.1498;-0.135;-0.1172;0.57;-1.72;0.13;236.1;21.56;-1.31;-25.81;268.91;-3.56;1.52;5.0;40.495;;;;NaN;;;;0 / 0;362;2022-11-17 14:19:05:272
-0.4003;0.4435;9.5052;-0.2091;0.5648;9.7881;-0.1133;-0.0394;-0.0125;0.57;-1.72;0.13;236.1;21.56;-1.31;-25.81;268.91;-3.56;1.52;5.0;40.495;;;;NaN;;;;0 / 0;371;2022-11-17 14:19:05:281
-0.4003;0.4435;9.5052;-0.2091;0.5648;9.7881;-0.1133;-0.0394;-0.0125;0.57;-1.72;0.13;236.1;21.56;-1.31;-25.81;268.91;-3.56;1.52;5.0;40.914;;;;NaN;;;;0 / 0;381;2022-11-17 14:19:05:291
-0.4003;0.4435;9.5052;-0.2091;0.5648;9.7881;-0.1133;-0.0394;-0.0125;0.57;-1.72;0.13;236.1;21.19;-1.75;-25.81;268.67;-3.3;1.22;5.0;40.914;;;;NaN;;;;0 / 0;391;2022-11-17 14:19:05:301
-0.4003;0.4435;9.5052;-0.2091;0.5648;9.7881;-0.1133;-0.0394;-0.0125;0.57;-1.72;0.13;236.1;21.19;-1.75;-25.81;268.67;-3.3;1.22;5.0;40.914;;;;NaN;;;;0 / 0;401;2022-11-17 14:19:05:311
-0.4003;0.4435;9.5052;-0.2091;0.5648;9.7881;-0.1133;-0.0394;-0.0125;0.57;-1.72;0.13;236.1;21.19;-1.75;-25.81;268.67;-3.3;1.22;5.0;40.914;;;;NaN;;;;0 / 0;411;2022-11-17 14:19:05:321
-0.4243;0.4374;9.7048;-0.2091;0.5648;9.7881;-0.1133;-0.0394;-0.0125;-0.04;-0.25;1.05;236.1;21.19;-1.75;-25.81;268.67;-3.3;1.22;5.0;40.914;;;;NaN;;;;0 / 0;421;2022-11-17 14:19:05:331
-0.4243;0.4374;9.7048;-0.1941;0.5497;9.7893;-0.1133;-0.0394;-0.0125;-0.04;-0.25;1.05;236.1;21.19;-1.75;-25.81;268.67;-3.3;1.22;5.0;40.914;;;;NaN;;;;0 / 0;431;2022-11-17 14:19:05:341
-0.4243;0.4374;9.7048;-0.1941;0.5497;9.7893;-0.1133;-0.0394;-0.0125;-0.04;-0.25;1.05;236.1;21.19;-1.75;-25.81;268.67;-3.3;1.22;5.0;40.914;;;;NaN;;;;0 / 0;442;2022-11-17 14:19:05:352
-0.4243;0.4374;9.7048;-0.1941;0.5497;9.7893;-0.1133;-0.0394;-0.0125;-0.04;-0.25;1.05;236.1;21.19;-1.75;-25.81;268.67;-3.3;1.22;5.0;40.914;;;;NaN;;;;0 / 0;452;2022-11-17 14:19:05:362
-0.4243;0.4374;9.7048;-0.1941;0.5497;9.7893;-0.1133;-0.0394;-0.0125;-0.04;-0.25;1.05;236.1;21.19;-1.75;-25.81;268.67;-3.3;1.22;5.0;40.914;;;;NaN;;;;0 / 0;462;2022-11-17 14:19:05:372
-0.4243;0.4374;9.7048;-0.1941;0.5497;9.7893;-0.1102;-0.064;-0.0617;-0.04;-0.25;1.05;236.1;21.19;-1.75;-25.81;268.67;-3.3;1.22;5.0;40.914;;;;NaN;;;;0 / 0;471;2022-11-17 14:19:05:381
-0.4243;0.4374;9.7048;-0.1941;0.5497;9.7893;-0.1102;-0.064;-0.0617;-0.04;-0.25;1.05;236.1;21.19;-1.75;-25.81;268.67;-3.3;1.22;5.0;40.914;;;;NaN;;;;0 / 0;482;2022-11-17 14:19:05:392
-0.4243;0.4374;9.7048;-0.1941;0.5497;9.7893;-0.1102;-0.064;-0.0617;-0.04;-0.25;1.05;236.1;21.19;-1.75;-25.81;268.67;-3.3;1.22;5.0;40.914;;;;NaN;;;;0 / 0;491;2022-11-17 14:19:05:401
-0.4243;0.4374;9.7048;-0.1941;0.5497;9.7893;-0.1102;-0.064;-0.0617;-0.04;-0.25;1.05;236.1;21.19;-1.75;-25.81;268.67;-3.3;1.22;5.0;40.914;;;;NaN;;;;0 / 0;501;2022-11-17 14:19:05:411
-0.4243;0.4374;9.7048;-0.1941;0.5497;9.7893;-0.1102;-0.064;-0.0617;-0.04;-0.25;1.05;236.1;21.25;-0.94;-25.62;271.35;-3.21;1.14;5.0;40.914;;;;NaN;;;;0 / 0;511;2022-11-17 14:19:05:421
-0.4243;0.4374;9.7048;-0.1941;0.5497;9.7893;-0.1102;-0.064;-0.0617;-0.04;-0.25;1.05;236.1;21.25;-0.94;-25.62;271.35;-3.21;1.14;5.0;40.914;;;;NaN;;;;0 / 0;521;2022-11-17 14:19:05:431
-0.4243;0.4374;9.7048;-0.201;0.5276;9.7903;-0.1102;-0.064;-0.0617;-0.04;-0.25;1.05;236.1;21.25;-0.94;-25.62;271.35;-3.21;1.14;5.0;40.914;;;;NaN;;;;0 / 0;532;2022-11-17 14:19:05:442
-0.4243;0.4374;9.7048;-0.201;0.5276;9.7903;-0.1102;-0.064;-0.0617;-0.04;-0.25;1.05;236.1;21.25;-0.94;-25.62;271.35;-3.21;1.14;5.0;40.914;;;;NaN;;;;0 / 0;542;2022-11-17 14:19:05:452
-0.2793;0.3574;9.8393;-0.201;0.5276;9.7903;-0.1102;-0.064;-0.0617;-2.26;-3.46;0.41;236.1;21.25;-0.94;-25.62;271.35;-3.21;1.14;5.0;40.914;;;;NaN;;;;0 / 0;551;2022-11-17 14:19:05:461
-0.2793;0.3574;9.8393;-0.201;0.5276;9.7903;-0.1102;-0.064;-0.0617;-2.26;-3.46;0.41;236.1;21.25;-0.94;-25.62;271.35;-3.21;1.14;5.0;40.914;;;;NaN;;;;0 / 0;562;2022-11-17 14:19:05:472
-0.2793;0.3574;9.8393;-0.201;0.5276;9.7903;-0.0389;-0.1127;-0.1123;-2.26;-3.46;0.41;235.3;21.25;-0.94;-25.62;271.35;-3.21;1.14;5.0;40.914;;;;NaN;;;;0 / 0;571;2022-11-17 14:19:05:481
-0.2793;0.3574;9.8393;-0.201;0.5276;9.7903;-0.0389;-0.1127;-0.1123;-2.26;-3.46;0.41;235.3;21.25;-0.94;-25.62;271.35;-3.21;1.14;5.0;40.914;;;;NaN;;;;0 / 0;581;2022-11-17 14:19:05:491
-0.2793;0.3574;9.8393;-0.201;0.5276;9.7903;-0.0389;-0.1127;-0.1123;-2.26;-3.46;0.41;235.3;21.25;-0.94;-25.62;271.35;-3.21;1.14;5.0;40.914;;;;NaN;;;;0 / 0;591;2022-11-17 14:19:05:501
-0.2793;0.3574;9.8393;-0.201;0.5276;9.7903;-0.0389;-0.1127;-0.1123;-2.26;-3.46;0.41;235.3;21.25;-0.94;-25.62;271.35;-3.21;1.14;5.0;40.914;;;;NaN;;;;0 / 0;601;2022-11-17 14:19:05:511
-0.2793;0.3574;9.8393;-0.201;0.5276;9.7903;-0.0389;-0.1127;-0.1123;-2.26;-3.46;0.41;235.3;21.25;-0.94;-25.62;271.35;-3.21;1.14;5.0;40.914;;;;NaN;;;;0 / 0;611;2022-11-17 14:19:05:521
-0.2793;0.3574;9.8393;-0.201;0.5276;9.7903;-0.0389;-0.1127;-0.1123;-2.26;-3.46;0.41;235.3;21.25;-0.94;-25.62;271.35;-3.21;1.14;5.0;40.914;;;;NaN;;;;0 / 0;622;2022-11-17 14:19:05:532
-0.2793;0.3574;9.8393;-0.1782;0.4785;9.7933;-0.0389;-0.1127;-0.1123;-2.26;-3.46;0.41;235.3;21.44;-0.69;-26.44;271.18;-3.08;1.18;5.0;40.914;;;;NaN;;;;0 / 0;632;2022-11-17 14:19:05:542
-0.2793;0.3574;9.8393;-0.1782;0.4785;9.7933;-0.0389;-0.1127;-0.1123;-2.26;-3.46;0.41;235.3;21.44;-0.69;-26.44;271.18;-3.08;1.18;5.0;40.914;;;;NaN;;;;0 / 0;642;2022-11-17 14:19:05:552
-0.2793;0.3574;9.8393;-0.1782;0.4785;9.7933;-0.0389;-0.1127;-0.1123;-2.26;-3.46;0.41;235.3;21.44;-0.69;-26.44;271.18;-3.08;1.18;5.0;40.914;;;;NaN;;;;0 / 0;652;2022-11-17 14:19:05:562
-0.2793;0.3574;9.8393;-0.1782;0.4785;9.7933;-0.0389;-0.1127;-0.1123;-2.26;-3.46;0.41;235.3;21.44;-0.69;-26.44;271.18;-3.08;1.18;5.0;40.914;;;;NaN;;;;0 / 0;662;2022-11-17 14:19:05:572
-0.2793;0.3574;9.8393;-0.1782;0.4785;9.7933;-0.1281;-0.054;-0.1437;-2.26;-3.46;0.41;235.3;21.44;-0.69;-26.44;271.18;-3.08;1.18;5.0;40.914;;;;NaN;;;;0 / 0;672;2022-11-17 14:19:05:582
-0.2783;0.4602;9.6943;-0.1782;0.4785;9.7933;-0.1281;-0.054;-0.1437;-2.75;-2.02;0.13;235.3;21.44;-0.69;-26.44;271.18;-3.08;1.18;5.0;40.914;;;;NaN;;;;0 / 0;682;2022-11-17 14:19:05:592
-0.2783;0.4602;9.6943;-0.1782;0.4785;9.7933;-0.1281;-0.054;-0.1437;-2.75;-2.02;0.13;235.3;21.44;-0.69;-26.44;271.18;-3.08;1.18;5.0;40.914;;;;NaN;;;;0 / 0;692;2022-11-17 14:19:05:602
-0.2783;0.4602;9.6943;-0.1782;0.4785;9.7933;-0.1281;-0.054;-0.1437;-2.75;-2.02;0.13;235.3;21.44;-0.69;-26.44;271.18;-3.08;1.18;5.0;40.914;;;;NaN;;;;0 / 0;702;2022-11-17 14:19:05:612
-0.2783;0.4602;9.6943;-0.1782;0.4785;9.7933;-0.1281;-0.054;-0.1437;-2.75;-2.02;0.13;235.3;21.44;-0.69;-26.44;271.18;-3.08;1.18;5.0;40.914;;;;NaN;;;;0 / 0;711;2022-11-17 14:19:05:621
-0.2783;0.4602;9.6943;-0.1782;0.4785;9.7933;-0.1281;-0.054;-0.1437;-2.75;-2.02;0.13;235.3;21.44;-0.69;-26.44;271.18;-3.08;1.18;5.0;40.686;;;;NaN;;;;0 / 0;721;2022-11-17 14:19:05:631
-0.2783;0.4602;9.6943;-0.1647;0.4508;9.7948;-0.1281;-0.054;-0.1437;-2.75;-2.02;0.13;235.3;21.44;-0.69;-26.44;271.18;-3.08;1.18;5.0;40.686;;;;NaN;;;;0 / 0;731;2022-11-17 14:19:05:641
-0.2783;0.4602;9.6943;-0.1647;0.4508;9.7948;-0.1281;-0.054;-0.1437;-2.75;-2.02;0.13;235.3;21.44;-0.69;-26.44;271.18;-3.08;1.18;5.0;40.686;;;;NaN;;;;0 / 0;741;2022-11-17 14:19:05:651
-0.2783;0.4602;9.6943;-0.1647;0.4508;9.7948;-0.1281;-0.054;-0.1437;-2.75;-2.02;0.13;235.3;20.88;-0.69;-25.87;270.59;-2.63;0.96;5.0;40.686;;;;NaN;;;;0 / 0;751;2022-11-17 14:19:05:661
-0.2783;0.4602;9.6943;-0.1647;0.4508;9.7948;-0.1281;-0.054;-0.1437;-2.75;-2.02;0.13;235.3;20.88;-0.69;-25.87;270.59;-2.63;0.96;5.0;40.686;;;;NaN;;;;0 / 0;762;2022-11-17 14:19:05:672
-0.2783;0.4602;9.6943;-0.1647;0.4508;9.7948;-0.0349;-0.0671;0.0208;-2.75;-2.02;0.13;235.3;20.88;-0.69;-25.87;270.59;-2.63;0.96;5.0;40.686;;;;NaN;;;;0 / 0;771;2022-11-17 14:19:05:681
-0.2783;0.4602;9.6943;-0.1647;0.4508;9.7948;-0.0349;-0.0671;0.0208;-2.75;-2.02;0.13;235.3;20.88;-0.69;-25.87;270.59;-2.63;0.96;5.0;40.686;;;;NaN;;;;0 / 0;782;2022-11-17 14:19:05:692
-0.2783;0.4602;9.6943;-0.1647;0.4508;9.7948;-0.0349;-0.0671;0.0208;-2.75;-2.02;0.13;235.3;20.88;-0.69;-25.87;270.59;-2.63;0.96;5.0;40.686;;;;NaN;;;;0 / 0;791;2022-11-17 14:19:05:701
-0.2783;0.4602;9.6943;-0.1647;0.4508;9.7948;-0.0349;-0.0671;0.0208;-2.75;-2.02;0.13;235.3;20.88;-0.69;-25.87;270.59;-2.63;0.96;5.0;40.686;;;;NaN;;;;0 / 0;801;2022-11-17 14:19:05:711
-0.3152;0.3582;9.8855;-0.1647;0.4508;9.7948;-0.0349;-0.0671;0.0208;0.06;1.48;-0.23;235.3;20.88;-0.69;-25.87;270.59;-2.63;0.96;5.0;40.686;;;;NaN;;;;0 / 0;811;2022-11-17 14:19:05:721
-0.3152;0.3582;9.8855;-0.1647;0.4508;9.7948;-0.0349;-0.0671;0.0208;0.06;1.48;-0.23;235.3;20.88;-0.69;-25.87;270.59;-2.63;0.96;5.0;40.686;;;;NaN;;;;0 / 0;822;2022-11-17 14:19:05:732
-0.3152;0.3582;9.8855;-0.1667;0.4259;9.7959;-0.0349;-0.0671;0.0208;0.06;1.48;-0.23;235.3;20.88;-0.69;-25.87;270.59;-2.63;0.96;5.0;40.686;;;;NaN;;;;0 / 0;832;2022-11-17 14:19:05:742
-0.3152;0.3582;9.8855;-0.1667;0.4259;9.7959;-0.0349;-0.0671;0.0208;0.06;1.48;-0.23;235.3;20.88;-0.69;-25.87;270.59;-2.63;0.96;5.0;40.686;;;;NaN;;;;0 / 0;842;2022-11-17 14:19:05:752
-0.3152;0.3582;9.8855;-0.1667;0.4259;9.7959;-0.0349;-0.0671;0.0208;0.06;1.48;-0.23;235.3;20.88;-0.69;-25.87;270.59;-2.63;0.96;5.0;40.686;;;;NaN;;;;0 / 0;852;2022-11-17 14:19:05:762
-0.3152;0.3582;9.8855;-0.1667;0.4259;9.7959;-0.0349;-0.0671;0.0208;0.06;1.48;-0.23;235.3;20.88;-0.69;-25.87;270.59;-2.63;0.96;5.0;40.686;;;;NaN;;;;0 / 0;861;2022-11-17 14:19:05:771
-0.3152;0.3582;9.8855;-0.1667;0.4259;9.7959;-0.143;-0.0637;-0.0384;0.06;1.48;-0.23;235.3;21.38;-1.31;-25.94;270.41;-2.49;0.97;5.0;40.686;;;;NaN;;;;0 / 0;872;2022-11-17 14:19:05:782
-0.3152;0.3582;9.8855;-0.1667;0.4259;9.7959;-0.143;-0.0637;-0.0384;0.06;1.48;-0.23;235.3;21.38;-1.31;-25.94;270.41;-2.49;0.97;5.0;40.686;;;;NaN;;;;0 / 0;881;2022-11-17 14:19:05:791
-0.3152;0.3582;9.8855;-0.1667;0.4259;9.7959;-0.143;-0.0637;-0.0384;0.06;1.48;-0.23;235.3;21.38;-1.31;-25.94;270.41;-2.49;0.97;5.0;40.686;;;;NaN;;;;0 / 0;891;2022-11-17 14:19:05:801
-0.3152;0.3582;9.8855;-0.1667;0.4259;9.7959;-0.143;-0.0637;-0.0384;0.06;1.48;-0.23;235.3;21.38;-1.31;-25.94;270.41;-2.49;0.97;5.0;40.686;;;;NaN;;;;0 / 0;901;2022-11-17 14:19:05:811
-0.3152;0.3582;9.8855;-0.1667;0.4259;9.7959;-0.143;-0.0637;-0.0384;0.06;1.48;-0.23;234.6;21.38;-1.31;-25.94;270.41;-2.49;0.97;5.0;40.686;;;;NaN;;;;0 / 0;911;2022-11-17 14:19:05:821
-0.3152;0.3582;9.8855;-0.1667;0.4259;9.7959;-0.143;-0.0637;-0.0384;0.06;1.48;-0.23;234.6;21.38;-1.31;-25.94;270.41;-2.49;0.97;5.0;40.686;;;;NaN;;;;0 / 0;922;2022-11-17 14:19:05:832
-0.3152;0.3582;9.8855;-0.1587;0.4278;9.796;-0.143;-0.0637;-0.0384;0.06;1.48;-0.23;234.6;21.38;-1.31;-25.94;270.41;-2.49;0.97;5.0;40.686;;;;NaN;;;;0 / 0;932;2022-11-17 14:19:05:842
-0.3009;0.3073;9.882;-0.1587;0.4278;9.796;-0.143;-0.0637;-0.0384;-1.68;-1.11;-1.02;234.6;21.38;-1.31;-25.94;270.41;-2.49;0.97;5.0;40.686;;;;NaN;;;;0 / 0;941;2022-11-17 14:19:05:851
-0.3009;0.3073;9.882;-0.1587;0.4278;9.796;-0.143;-0.0637;-0.0384;-1.68;-1.11;-1.02;234.6;21.38;-1.31;-25.94;270.41;-2.49;0.97;5.0;40.686;;;;NaN;;;;0 / 0;952;2022-11-17 14:19:05:862
-0.3009;0.3073;9.882;-0.1587;0.4278;9.796;-0.143;-0.0637;-0.0384;-1.68;-1.11;-1.02;234.6;21.38;-1.31;-25.94;270.41;-2.49;0.97;5.0;40.686;;;;NaN;;;;0 / 0;962;2022-11-17 14:19:05:872
-0.3009;0.3073;9.882;-0.1587;0.4278;9.796;-0.0529;-0.104;0.0101;-1.68;-1.11;-1.02;234.6;21.38;-1.31;-25.94;270.41;-2.49;0.97;5.0;40.686;;;;NaN;;;;0 / 0;972;2022-11-17 14:19:05:882
-0.3009;0.3073;9.882;-0.1587;0.4278;9.796;-0.0529;-0.104;0.0101;-1.68;-1.11;-1.02;234.6;21.38;-1.31;-25.94;270.41;-2.49;0.97;5.0;40.686;;;;NaN;;;;0 / 0;982;2022-11-17 14:19:05:892
-0.3009;0.3073;9.882;-0.1587;0.4278;9.796;-0.0529;-0.104;0.0101;-1.68;-1.11;-1.02;234.6;21.25;-0.94;-26.44;270.42;-2.5;0.93;5.0;40.686;;;;NaN;;;;0 / 0;992;2022-11-17 14:19:05:902
-0.3009;0.3073;9.882;-0.1587;0.4278;9.796;-0.0529;-0.104;0.0101;-1.68;-1.11;-1.02;234.6;21.25;-0.94;-26.44;270.42;-2.5;0.93;5.0;40.686;;;;NaN;;;;0 / 0;1003;2022-11-17 14:19:05:913
-0.3009;0.3073;9.882;-0.1587;0.4278;9.796;-0.0529;-0.104;0.0101;-1.68;-1.11;-1.02;234.6;21.25;-0.94;-26.44;270.42;-2.5;0.93;5.0;40.686;;;;NaN;;;;0 / 0;1011;2022-11-17 14:19:05:921
-0.3009;0.3073;9.882;-0.1725;0.4425;9.7951;-0.0529;-0.104;0.0101;-1.68;-1.11;-1.02;234.6;21.25;-0.94;-26.44;270.42;-2.5;0.93;5.0;39.62;;;;NaN;;;;0 / 0;1029;2022-11-17 14:19:05:939
-0.3009;0.3073;9.882;-0.1725;0.4425;9.7951;-0.0529;-0.104;0.0101;-1.68;-1.11;-1.02;234.6;21.25;-0.94;-26.44;270.42;-2.5;0.93;5.0;39.62;;;;NaN;;;;0 / 0;1031;2022-11-17 14:19:05:941
-0.3009;0.3073;9.882;-0.1725;0.4425;9.7951;-0.0529;-0.104;0.0101;-1.68;-1.11;-1.02;234.6;21.25;-0.94;-26.44;270.42;-2.5;0.93;5.0;39.62;;;;NaN;;;;0 / 0;1042;2022-11-17 14:19:05:952
-0.3009;0.3073;9.882;-0.1725;0.4425;9.7951;-0.0529;-0.104;0.0101;-1.68;-1.11;-1.02;234.6;21.25;-0.94;-26.44;270.42;-2.5;0.93;5.0;39.62;;;;NaN;;;;0 / 0;1051;2022-11-17 14:19:05:961
-0.3009;0.3073;9.882;-0.1725;0.4425;9.7951;-0.0529;-0.104;0.0101;-1.68;-1.11;-1.02;234.6;21.25;-0.94;-26.44;270.42;-2.5;0.93;5.0;39.62;;;;NaN;;;;0 / 0;1062;2022-11-17 14:19:05:972
-0.3009;0.3073;9.882;-0.1725;0.4425;9.7951;-0.1198;-0.0353;-0.0383;-1.68;-1.11;-1.02;234.6;21.25;-0.94;-26.44;270.42;-2.5;0.93;5.0;39.62;;;;NaN;;;;0 / 0;1071;2022-11-17 14:19:05:981
-0.2652;0.4143;9.7457;-0.1725;0.4425;9.7951;-0.1198;-0.0353;-0.0383;-2.17;-1.84;-0.29;234.6;21.25;-0.94;-26.44;270.42;-2.5;0.93;5.0;39.62;;;;NaN;;;;0 / 0;1082;2022-11-17 14:19:05:992
-0.2652;0.4143;9.7457;-0.1725;0.4425;9.7951;-0.1198;-0.0353;-0.0383;-2.17;-1.84;-0.29;234.6;21.25;-0.94;-26.44;270.42;-2.5;0.93;5.0;39.62;;;;NaN;;;;0 / 0;1092;2022-11-17 14:19:06:002
-0.2652;0.4143;9.7457;-0.1725;0.4425;9.7951;-0.1198;-0.0353;-0.0383;-2.17;-1.84;-0.29;234.6;21.25;-0.94;-26.44;270.42;-2.5;0.93;5.0;39.62;;;;NaN;;;;0 / 0;1102;2022-11-17 14:19:06:012
-0.2652;0.4143;9.7457;-0.1725;0.4425;9.7951;-0.1198;-0.0353;-0.0383;-2.17;-1.84;-0.29;234.6;21.63;-0.94;-26.06;270.51;-2.59;1.01;5.0;39.62;;;;NaN;;;;0 / 0;1112;2022-11-17 14:19:06:022
-0.2652;0.4143;9.7457;-0.1725;0.4425;9.7951;-0.1198;-0.0353;-0.0383;-2.17;-1.84;-0.29;234.6;21.63;-0.94;-26.06;270.51;-2.59;1.01;5.0;39.62;;;;NaN;;;;0 / 0;1122;2022-11-17 14:19:06:032
-0.2652;0.4143;9.7457;-0.1519;0.4193;9.7965;-0.1198;-0.0353;-0.0383;-2.17;-1.84;-0.29;234.6;21.63;-0.94;-26.06;270.51;-2.59;1.01;5.0;39.62;;;;NaN;;;;0 / 0;1132;2022-11-17 14:19:06:042
-0.2652;0.4143;9.7457;-0.1519;0.4193;9.7965;-0.1198;-0.0353;-0.0383;-2.17;-1.84;-0.29;234.6;21.63;-0.94;-26.06;270.51;-2.59;1.01;5.0;39.62;;;;NaN;;;;0 / 0;1141;2022-11-17 14:19:06:051
-0.2652;0.4143;9.7457;-0.1519;0.4193;9.7965;-0.1198;-0.0353;-0.0383;-2.17;-1.84;-0.29;234.6;21.63;-0.94;-26.06;270.51;-2.59;1.01;5.0;39.62;;;;NaN;;;;0 / 0;1151;2022-11-17 14:19:06:061
-0.2652;0.4143;9.7457;-0.1519;0.4193;9.7965;-0.1198;-0.0353;-0.0383;-2.17;-1.84;-0.29;234.6;21.63;-0.94;-26.06;270.51;-2.59;1.01;5.0;39.62;;;;NaN;;;;0 / 0;1161;2022-11-17 14:19:06:071
-0.2652;0.4143;9.7457;-0.1519;0.4193;9.7965;-0.112;-0.1111;-0.068;-2.17;-1.84;-0.29;234.6;21.63;-0.94;-26.06;270.51;-2.59;1.01;5.0;39.62;;;;NaN;;;;0 / 0;1171;2022-11-17 14:19:06:081
-0.2652;0.4143;9.7457;-0.1519;0.4193;9.7965;-0.112;-0.1111;-0.068;-2.17;-1.84;-0.29;234.6;21.63;-0.94;-26.06;270.51;-2.59;1.01;5.0;39.62;;;;NaN;;;;0 / 0;1181;2022-11-17 14:19:06:091
-0.2652;0.4143;9.7457;-0.1519;0.4193;9.7965;-0.112;-0.1111;-0.068;-2.17;-1.84;-0.29;234.6;21.63;-0.94;-26.06;270.51;-2.59;1.01;5.0;39.62;;;;NaN;;;;0 / 0;1192;2022-11-17 14:19:06:102
-0.2868;0.4379;9.7674;-0.1519;0.4193;9.7965;-0.112;-0.1111;-0.068;-1.68;2.46;-0.26;234.6;21.63;-0.94;-26.06;270.51;-2.59;1.01;5.0;39.62;;;;NaN;;;;0 / 0;1201;2022-11-17 14:19:06:111
-0.2868;0.4379;9.7674;-0.1519;0.4193;9.7965;-0.112;-0.1111;-0.068;-1.68;2.46;-0.26;234.6;21.63;-0.94;-26.06;270.51;-2.59;1.01;5.0;39.62;;;;NaN;;;;0 / 0;1211;2022-11-17 14:19:06:121
-0.2868;0.4379;9.7674;-0.1519;0.4193;9.7965;-0.112;-0.1111;-0.068;-1.68;2.46;-0.26;234.6;21.63;-0.94;-26.06;270.51;-2.59;1.01;5.0;39.62;;;;NaN;;;;0 / 0;1222;2022-11-17 14:19:06:132
-0.2868;0.4379;9.7674;-0.1696;0.4089;9.7966;-0.112;-0.1111;-0.068;-1.68;2.46;-0.26;234.6;21.31;-0.56;-25.81;270.35;-2.45;0.89;5.0;39.62;;;;NaN;;;;0 / 0;1232;2022-11-17 14:19:06:142
-0.2868;0.4379;9.7674;-0.1696;0.4089;9.7966;-0.112;-0.1111;-0.068;-1.68;2.46;-0.26;234.6;21.31;-0.56;-25.81;270.35;-2.45;0.89;5.0;39.62;;;;NaN;;;;0 / 0;1241;2022-11-17 14:19:06:151
-0.2868;0.4379;9.7674;-0.1696;0.4089;9.7966;-0.112;-0.1111;-0.068;-1.68;2.46;-0.26;234.6;21.31;-0.56;-25.81;270.35;-2.45;0.89;5.0;39.62;;;;NaN;;;;0 / 0;1251;2022-11-17 14:19:06:161
-0.2868;0.4379;9.7674;-0.1696;0.4089;9.7966;-0.112;-0.1111;-0.068;-1.68;2.46;-0.26;234.6;21.31;-0.56;-25.81;270.35;-2.45;0.89;5.0;39.62;;;;NaN;;;;0 / 0;1261;2022-11-17 14:19:06:171
-0.2868;0.4379;9.7674;-0.1696;0.4089;9.7966;-0.2038;-0.148;0.0095;-1.68;2.46;-0.26;234.9;21.31;-0.56;-25.81;270.35;-2.45;0.89;5.0;39.62;;;;NaN;;;;0 / 0;1271;2022-11-17 14:19:06:181
-0.2868;0.4379;9.7674;-0.1696;0.4089;9.7966;-0.2038;-0.148;0.0095;-1.68;2.46;-0.26;234.9;21.31;-0.56;-25.81;270.35;-2.45;0.89;5.0;39.62;;;;NaN;;;;0 / 0;1282;2022-11-17 14:19:06:192
-0.2868;0.4379;9.7674;-0.1696;0.4089;9.7966;-0.2038;-0.148;0.0095;-1.68;2.46;-0.26;234.9;21.31;-0.56;-25.81;270.35;-2.45;0.89;5.0;39.62;;;;NaN;;;;0 / 0;1291;2022-11-17 14:19:06:201
-0.2868;0.4379;9.7674;-0.1696;0.4089;9.7966;-0.2038;-0.148;0.0095;-1.68;2.46;-0.26;234.9;21.31;-0.56;-25.81;270.35;-2.45;0.89;5.0;39.62;;;;NaN;;;;0 / 0;1302;2022-11-17 14:19:06:212
-0.2868;0.4379;9.7674;-0.1696;0.4089;9.7966;-0.2038;-0.148;0.0095;-1.68;2.46;-0.26;234.9;21.31;-0.56;-25.81;270.35;-2.45;0.89;5.0;39.62;;;;NaN;;;;0 / 0;1312;2022-11-17 14:19:06:222
-0.2868;0.4379;9.7674;-0.1696;0.4089;9.7966;-0.2038;-0.148;0.0095;-1.68;2.46;-0.26;234.9;21.31;-0.56;-25.81;270.35;-2.45;0.89;5.0;39.62;;;;NaN;;;;0 / 0;1322;2022-11-17 14:19:06:232
-0.2868;0.4379;9.7674;-0.1739;0.374;9.7979;-0.2038;-0.148;0.0095;-1.68;2.46;-0.26;234.9;21.31;-0.56;-25.81;270.35;-2.45;0.89;5.0;39.62;;;;NaN;;;;0 / 0;1331;2022-11-17 14:19:06:241
-0.1997;0.4236;9.486;-0.1739;0.374;9.7979;-0.2038;-0.148;0.0095;-1.87;-1.14;0.5;234.9;21.31;-0.56;-25.81;270.35;-2.45;0.89;5.0;39.62;;;;NaN;;;;0 / 0;1342;2022-11-17 14:19:06:252
-0.1997;0.4236;9.486;-0.1739;0.374;9.7979;-0.2038;-0.148;0.0095;-1.87;-1.14;0.5;234.9;21.25;-0.81;-25.87;270.02;-2.19;1.02;5.0;39.62;;;;NaN;;;;0 / 0;1351;2022-11-17 14:19:06:261
-0.1997;0.4236;9.486;-0.1739;0.374;9.7979;-0.2038;-0.148;0.0095;-1.87;-1.14;0.5;234.9;21.25;-0.81;-25.87;270.02;-2.19;1.02;5.0;39.62;;;;NaN;;;;0 / 0;1362;2022-11-17 14:19:06:272
-0.1997;0.4236;9.486;-0.1739;0.374;9.7979;0.0201;-0.1237;0.1354;-1.87;-1.14;0.5;234.9;21.25;-0.81;-25.87;270.02;-2.19;1.02;5.0;39.611;;;;NaN;;;;0 / 0;1372;2022-11-17 14:19:06:282
-0.1997;0.4236;9.486;-0.1739;0.374;9.7979;0.0201;-0.1237;0.1354;-1.87;-1.14;0.5;234.9;21.25;-0.81;-25.87;270.02;-2.19;1.02;5.0;39.611;;;;NaN;;;;0 / 0;1382;2022-11-17 14:19:06:292
-0.1997;0.4236;9.486;-0.1739;0.374;9.7979;0.0201;-0.1237;0.1354;-1.87;-1.14;0.5;234.9;21.25;-0.81;-25.87;270.02;-2.19;1.02;5.0;39.611;;;;NaN;;;;0 / 0;1391;2022-11-17 14:19:06:301
-0.1997;0.4236;9.486;-0.1739;0.374;9.7979;0.0201;-0.1237;0.1354;-1.87;-1.14;0.5;234.9;21.25;-0.81;-25.87;270.02;-2.19;1.02;5.0;39.611;;;;NaN;;;;0 / 0;1401;2022-11-17 14:19:06:311
-0.1997;0.4236;9.486;-0.1739;0.374;9.7979;0.0201;-0.1237;0.1354;-1.87;-1.14;0.5;234.9;21.25;-0.81;-25.87;270.02;-2.19;1.02;5.0;39.611;;;;NaN;;;;0 / 0;1411;2022-11-17 14:19:06:321
-0.1997;0.4236;9.486;-0.1739;0.374;9.7979;0.0201;-0.1237;0.1354;-1.87;-1.14;0.5;234.9;21.25;-0.81;-25.87;270.02;-2.19;1.02;5.0;39.611;;;;NaN;;;;0 / 0;1421;2022-11-17 14:19:06:331
-0.1997;0.4236;9.486;-0.1939;0.3571;9.7982;0.0201;-0.1237;0.1354;-1.87;-1.14;0.5;234.9;21.25;-0.81;-25.87;270.02;-2.19;1.02;5.0;39.611;;;;NaN;;;;0 / 0;1432;2022-11-17 14:19:06:342
-0.1997;0.4236;9.486;-0.1939;0.3571;9.7982;0.0201;-0.1237;0.1354;-1.87;-1.14;0.5;234.9;21.25;-0.81;-25.87;270.02;-2.19;1.02;5.0;39.611;;;;NaN;;;;0 / 0;1442;2022-11-17 14:19:06:352
-0.1997;0.4236;9.486;-0.1939;0.3571;9.7982;0.0201;-0.1237;0.1354;-1.87;-1.14;0.5;234.9;21.25;-0.81;-25.87;270.02;-2.19;1.02;5.0;39.611;;;;NaN;;;;0 / 0;1451;2022-11-17 14:19:06:361
-0.1997;0.4236;9.486;-0.1939;0.3571;9.7982;0.0201;-0.1237;0.1354;-1.87;-1.14;0.5;234.9;21.25;-0.81;-25.87;270.02;-2.19;1.02;5.0;39.611;;;;NaN;;;;0 / 0;1462;2022-11-17 14:19:06:372
-0.3656;0.2879;9.4415;-0.1939;0.3571;9.7982;-0.1482;-0.0949;-0.3727;-0.61;2.0;0.41;234.9;21.25;-0.44;-25.75;272.69;-2.09;1.13;5.0;39.611;;;;NaN;;;;0 / 0;1472;2022-11-17 14:19:06:382
-0.3656;0.2879;9.4415;-0.1939;0.3571;9.7982;-0.1482;-0.0949;-0.3727;-0.61;2.0;0.41;234.9;21.25;-0.44;-25.75;272.69;-2.09;1.13;5.0;39.611;;;;NaN;;;;0 / 0;1481;2022-11-17 14:19:06:391
-0.3656;0.2879;9.4415;-0.1939;0.3571;9.7982;-0.1482;-0.0949;-0.3727;-0.61;2.0;0.41;234.9;21.25;-0.44;-25.75;272.69;-2.09;1.13;5.0;39.611;;;;NaN;;;;0 / 0;1491;2022-11-17 14:19:06:401
-0.3656;0.2879;9.4415;-0.1939;0.3571;9.7982;-0.1482;-0.0949;-0.3727;-0.61;2.0;0.41;234.9;21.25;-0.44;-25.75;272.69;-2.09;1.13;5.0;39.611;;;;NaN;;;;0 / 0;1501;2022-11-17 14:19:06:411
-0.3656;0.2879;9.4415;-0.1939;0.3571;9.7982;-0.1482;-0.0949;-0.3727;-0.61;2.0;0.41;234.9;21.25;-0.44;-25.75;272.69;-2.09;1.13;5.0;39.611;;;;NaN;;;;0 / 0;1511;2022-11-17 14:19:06:421
-0.3656;0.2879;9.4415;-0.1939;0.3571;9.7982;-0.1482;-0.0949;-0.3727;-0.61;2.0;0.41;234.9;21.25;-0.44;-25.75;272.69;-2.09;1.13;5.0;39.611;;;;NaN;;;;0 / 0;1522;2022-11-17 14:19:06:432
-0.3656;0.2879;9.4415;-0.2082;0.362;9.7977;-0.1482;-0.0949;-0.3727;-0.61;2.0;0.41;234.9;21.25;-0.44;-25.75;272.69;-2.09;1.13;5.0;39.611;;;;NaN;;;;0 / 0;1532;2022-11-17 14:19:06:442
-0.3656;0.2879;9.4415;-0.2082;0.362;9.7977;-0.1482;-0.0949;-0.3727;-0.61;2.0;0.41;234.9;21.25;-0.44;-25.75;272.69;-2.09;1.13;5.0;39.611;;;;NaN;;;;0 / 0;1541;2022-11-17 14:19:06:451
-0.3656;0.2879;9.4415;-0.2082;0.362;9.7977;-0.1482;-0.0949;-0.3727;-0.61;2.0;0.41;234.9;21.25;-0.44;-25.75;272.69;-2.09;1.13;5.0;39.611;;;;NaN;;;;0 / 0;1551;2022-11-17 14:19:06:461
-0.3656;0.2879;9.4415;-0.2082;0.362;9.7977;-0.1482;-0.0949;-0.3727;-0.61;2.0;0.41;234.9;21.25;-0.44;-25.75;272.69;-2.09;1.13;5.0;39.611;;;;NaN;;;;0 / 0;1561;2022-11-17 14:19:06:471
-0.3656;0.2879;9.4415;-0.2082;0.362;9.7977;-0.0483;-0.107;-0.0409;-0.61;2.0;0.41;234.9;21.25;-0.44;-25.75;272.69;-2.09;1.13;5.0;39.611;;;;NaN;;;;0 / 0;1571;2022-11-17 14:19:06:481
-0.3656;0.2879;9.4415;-0.2082;0.362;9.7977;-0.0483;-0.107;-0.0409;-0.61;2.0;0.41;234.9;21.25;-0.44;-25.75;272.69;-2.09;1.13;5.0;39.611;;;;NaN;;;;0 / 0;1582;2022-11-17 14:19:06:492
-0.3656;0.2879;9.4415;-0.2082;0.362;9.7977;-0.0483;-0.107;-0.0409;-0.61;2.0;0.41;234.9;21.5;-0.75;-25.87;269.94;-2.12;1.22;5.0;39.611;;;;NaN;;;;0 / 0;1592;2022-11-17 14:19:06:502
-0.2779;0.2632;9.8062;-0.2082;0.362;9.7977;-0.0483;-0.107;-0.0409;0.08;0.87;-0.35;234.9;21.5;-0.75;-25.87;269.94;-2.12;1.22;5.0;39.611;;;;NaN;;;;0 / 0;1603;2022-11-17 14:19:06:513
-0.2779;0.2632;9.8062;-0.2082;0.362;9.7977;-0.0483;-0.107;-0.0409;0.08;0.87;-0.35;234.9;21.5;-0.75;-25.87;269.94;-2.12;1.22;5.0;39.611;;;;NaN;;;;0 / 0;1611;2022-11-17 14:19:06:521
-0.2779;0.2632;9.8062;-0.2082;0.362;9.7977;-0.0483;-0.107;-0.0409;0.08;0.87;-0.35;235.3;21.5;-0.75;-25.87;269.94;-2.12;1.22;5.0;39.611;;;;NaN;;;;0 / 0;1621;2022-11-17 14:19:06:531
-0.2779;0.2632;9.8062;-0.1954;0.339;9.7988;-0.0483;-0.107;-0.0409;0.08;0.87;-0.35;235.3;21.5;-0.75;-25.87;269.94;-2.12;1.22;5.0;39.611;;;;NaN;;;;0 / 0;1632;2022-11-17 14:19:06:542
-0.2779;0.2632;9.8062;-0.1954;0.339;9.7988;-0.0483;-0.107;-0.0409;0.08;0.87;-0.35;235.3;21.5;-0.75;-25.87;269.94;-2.12;1.22;5.0;39.611;;;;NaN;;;;0 / 0;1642;2022-11-17 14:19:06:552
-0.2779;0.2632;9.8062;-0.1954;0.339;9.7988;-0.0483;-0.107;-0.0409;0.08;0.87;-0.35;235.3;21.5;-0.75;-25.87;269.94;-2.12;1.22;5.0;39.611;;;;NaN;;;;0 / 0;1651;2022-11-17 14:19:06:561
-0.2779;0.2632;9.8062;-0.1954;0.339;9.7988;-0.0483;-0.107;-0.0409;0.08;0.87;-0.35;235.3;21.5;-0.75;-25.87;269.94;-2.12;1.22;5.0;39.611;;;;NaN;;;;0 / 0;1662;2022-11-17 14:19:06:572
-0.2779;0.2632;9.8062;-0.1954;0.339;9.7988;-0.1495;-0.0205;-0.266;0.08;0.87;-0.35;235.3;21.5;-0.75;-25.87;269.94;-2.12;1.22;5.0;39.611;;;;NaN;;;;0 / 0;1672;2022-11-17 14:19:06:582
-0.2779;0.2632;9.8062;-0.1954;0.339;9.7988;-0.1495;-0.0205;-0.266;0.08;0.87;-0.35;235.3;21.5;-0.75;-25.87;269.94;-2.12;1.22;5.0;39.935;;;;NaN;;;;0 / 0;1682;2022-11-17 14:19:06:592
-0.2779;0.2632;9.8062;-0.1954;0.339;9.7988;-0.1495;-0.0205;-0.266;0.08;0.87;-0.35;235.3;21.5;-0.75;-25.87;269.94;-2.12;1.22;5.0;39.935;;;;NaN;;;;0 / 0;1691;2022-11-17 14:19:06:601
-0.2779;0.2632;9.8062;-0.1954;0.339;9.7988;-0.1495;-0.0205;-0.266;0.08;0.87;-0.35;235.3;21.5;-0.75;-25.87;269.94;-2.12;1.22;5.0;39.935;;;;NaN;;;;0 / 0;1701;2022-11-17 14:19:06:611
-0.2779;0.2632;9.8062;-0.1954;0.339;9.7988;-0.1495;-0.0205;-0.266;0.08;0.87;-0.35;235.3;21.69;-0.94;-26.5;269.77;-1.98;1.14;5.0;39.935;;;;NaN;;;;0 / 0;1712;2022-11-17 14:19:06:622
-0.2779;0.2632;9.8062;-0.1954;0.339;9.7988;-0.1495;-0.0205;-0.266;0.08;0.87;-0.35;235.3;21.69;-0.94;-26.5;269.77;-1.98;1.14;5.0;39.935;;;;NaN;;;;0 / 0;1722;2022-11-17 14:19:06:632
-0.2779;0.2632;9.8062;-0.2035;0.3417;9.7985;-0.1495;-0.0205;-0.266;0.08;0.87;-0.35;235.3;21.69;-0.94;-26.5;269.77;-1.98;1.14;5.0;39.935;;;;NaN;;;;0 / 0;1731;2022-11-17 14:19:06:641
-0.2784;0.3039;9.7776;-0.2035;0.3417;9.7985;-0.1495;-0.0205;-0.266;0.3;-3.52;-0.87;235.3;21.69;-0.94;-26.5;269.77;-1.98;1.14;5.0;39.935;;;;NaN;;;;0 / 0;1741;2022-11-17 14:19:06:651
-0.2784;0.3039;9.7776;-0.2035;0.3417;9.7985;-0.1495;-0.0205;-0.266;0.3;-3.52;-0.87;235.3;21.69;-0.94;-26.5;269.77;-1.98;1.14;5.0;39.935;;;;NaN;;;;0 / 0;1751;2022-11-17 14:19:06:661
-0.2784;0.3039;9.7776;-0.2035;0.3417;9.7985;-0.1495;-0.0205;-0.266;0.3;-3.52;-0.87;235.3;21.69;-0.94;-26.5;269.77;-1.98;1.14;5.0;39.935;;;;NaN;;;;0 / 0;1764;2022-11-17 14:19:06:674
-0.2784;0.3039;9.7776;-0.2035;0.3417;9.7985;-0.0481;-0.0557;0.0567;0.3;-3.52;-0.87;235.3;21.69;-0.94;-26.5;269.77;-1.98;1.14;5.0;39.935;;;;NaN;;;;0 / 0;1771;2022-11-17 14:19:06:681
-0.2784;0.3039;9.7776;-0.2035;0.3417;9.7985;-0.0481;-0.0557;0.0567;0.3;-3.52;-0.87;235.3;21.69;-0.94;-26.5;269.77;-1.98;1.14;5.0;39.935;;;;NaN;;;;0 / 0;1782;2022-11-17 14:19:06:692
-0.2784;0.3039;9.7776;-0.2035;0.3417;9.7985;-0.0481;-0.0557;0.0567;0.3;-3.52;-0.87;235.3;21.69;-0.94;-26.5;269.77;-1.98;1.14;5.0;39.935;;;;NaN;;;;0 / 0;1792;2022-11-17 14:19:06:702
-0.2784;0.3039;9.7776;-0.2035;0.3417;9.7985;-0.0481;-0.0557;0.0567;0.3;-3.52;-0.87;235.3;21.69;-0.94;-26.5;269.77;-1.98;1.14;5.0;39.935;;;;NaN;;;;0 / 0;1802;2022-11-17 14:19:06:712
-0.2784;0.3039;9.7776;-0.2035;0.3417;9.7985;-0.0481;-0.0557;0.0567;0.3;-3.52;-0.87;235.3;21.69;-0.94;-26.5;269.77;-1.98;1.14;5.0;39.935;;;;NaN;;;;0 / 0;1811;2022-11-17 14:19:06:721
-0.2784;0.3039;9.7776;-0.2035;0.3417;9.7985;-0.0481;-0.0557;0.0567;0.3;-3.52;-0.87;235.3;21.69;-0.94;-26.5;269.77;-1.98;1.14;5.0;39.935;;;;NaN;;;;0 / 0;1821;2022-11-17 14:19:06:731
-0.2784;0.3039;9.7776;-0.2077;0.3426;9.7984;-0.0481;-0.0557;0.0567;0.3;-3.52;-0.87;235.3;21.56;-1.25;-26.0;269.79;-2.0;1.19;5.0;39.935;;;;NaN;;;;0 / 0;1832;2022-11-17 14:19:06:742
-0.2784;0.3039;9.7776;-0.2077;0.3426;9.7984;-0.0481;-0.0557;0.0567;0.3;-3.52;-0.87;235.3;21.56;-1.25;-26.0;269.79;-2.0;1.19;5.0;39.935;;;;NaN;;;;0 / 0;1842;2022-11-17 14:19:06:752
-0.2784;0.3039;9.7776;-0.2077;0.3426;9.7984;-0.0481;-0.0557;0.0567;0.3;-3.52;-0.87;235.3;21.56;-1.25;-26.0;269.79;-2.0;1.19;5.0;39.935;;;;NaN;;;;0 / 0;1852;2022-11-17 14:19:06:762
-0.2784;0.3039;9.7776;-0.2077;0.3426;9.7984;-0.0481;-0.0557;0.0567;0.3;-3.52;-0.87;235.3;21.56;-1.25;-26.0;269.79;-2.0;1.19;5.0;39.935;;;;NaN;;;;0 / 0;1861;2022-11-17 14:19:06:771
-0.349;0.2924;9.6576;-0.2077;0.3426;9.7984;-0.1516;-0.0684;-0.1773;0.27;2.37;-0.26;235.3;21.56;-1.25;-26.0;269.79;-2.0;1.19;5.0;39.935;;;;NaN;;;;0 / 0;1871;2022-11-17 14:19:06:781
-0.349;0.2924;9.6576;-0.2077;0.3426;9.7984;-0.1516;-0.0684;-0.1773;0.27;2.37;-0.26;235.3;21.56;-1.25;-26.0;269.79;-2.0;1.19;5.0;39.935;;;;NaN;;;;0 / 0;1882;2022-11-17 14:19:06:792
-0.349;0.2924;9.6576;-0.2077;0.3426;9.7984;-0.1516;-0.0684;-0.1773;0.27;2.37;-0.26;235.3;21.56;-1.25;-26.0;269.79;-2.0;1.19;5.0;39.935;;;;NaN;;;;0 / 0;1892;2022-11-17 14:19:06:802
-0.349;0.2924;9.6576;-0.2077;0.3426;9.7984;-0.1516;-0.0684;-0.1773;0.27;2.37;-0.26;235.3;21.56;-1.25;-26.0;269.79;-2.0;1.19;5.0;39.935;;;;NaN;;;;0 / 0;1901;2022-11-17 14:19:06:811
-0.349;0.2924;9.6576;-0.2077;0.3426;9.7984;-0.1516;-0.0684;-0.1773;0.27;2.37;-0.26;235.3;21.56;-1.25;-26.0;269.79;-2.0;1.19;5.0;39.935;;;;NaN;;;;0 / 0;1911;2022-11-17 14:19:06:821
-0.349;0.2924;9.6576;-0.2077;0.3426;9.7984;-0.1516;-0.0684;-0.1773;0.27;2.37;-0.26;235.3;21.56;-1.25;-26.0;269.79;-2.0;1.19;5.0;39.935;;;;NaN;;;;0 / 0;1921;2022-11-17 14:19:06:831
-0.349;0.2924;9.6576;-0.2227;0.3602;9.7975;-0.1516;-0.0684;-0.1773;0.27;2.37;-0.26;235.3;21.56;-1.25;-26.0;269.79;-2.0;1.19;5.0;39.935;;;;NaN;;;;0 / 0;1931;2022-11-17 14:19:06:841
-0.349;0.2924;9.6576;-0.2227;0.3602;9.7975;-0.1516;-0.0684;-0.1773;0.27;2.37;-0.26;235.3;21.56;-1.25;-26.0;269.79;-2.0;1.19;5.0;39.935;;;;NaN;;;;0 / 0;1941;2022-11-17 14:19:06:851
-0.349;0.2924;9.6576;-0.2227;0.3602;9.7975;-0.1516;-0.0684;-0.1773;0.27;2.37;-0.26;235.3;21.63;-0.44;-26.12;272.6;-2.1;1.3;5.0;39.935;;;;NaN;;;;0 / 0;1952;2022-11-17 14:19:06:862
-0.349;0.2924;9.6576;-0.2227;0.3602;9.7975;-0.1516;-0.0684;-0.1773;0.27;2.37;-0.26;235.3;21.63;-0.44;-26.12;272.6;-2.1;1.3;5.0;39.935;;;;NaN;;;;0 / 0;1962;2022-11-17 14:19:06:872
-0.349;0.2924;9.6576;-0.2227;0.3602;9.7975;-0.0617;-0.0505;-0.1279;0.27;2.37;-0.26;235.3;21.63;-0.44;-26.12;272.6;-2.1;1.3;5.0;39.935;;;;NaN;;;;0 / 0;1972;2022-11-17 14:19:06:882
-0.349;0.2924;9.6576;-0.2227;0.3602;9.7975;-0.0617;-0.0505;-0.1279;0.27;2.37;-0.26;235.3;21.63;-0.44;-26.12;272.6;-2.1;1.3;5.0;39.935;;;;NaN;;;;0 / 0;1981;2022-11-17 14:19:06:891
-0.349;0.2924;9.6576;-0.2227;0.3602;9.7975;-0.0617;-0.0505;-0.1279;0.27;2.37;-0.26;235.3;21.63;-0.44;-26.12;272.6;-2.1;1.3;5.0;39.935;;;;NaN;;;;0 / 0;1992;2022-11-17 14:19:06:902
-0.3609;0.3313;9.7431;-0.2227;0.3602;9.7975;-0.0617;-0.0505;-0.1279;2.07;1.33;-0.47;235.3;21.63;-0.44;-26.12;272.6;-2.1;1.3;5.0;41.262;;;;NaN;;;;0 / 0;2001;2022-11-17 14:19:06:911
-0.3609;0.3313;9.7431;-0.2227;0.3602;9.7975;-0.0617;-0.0505;-0.1279;2.07;1.33;-0.47;235.3;21.63;-0.44;-26.12;272.6;-2.1;1.3;5.0;41.262;;;;NaN;;;;0 / 0;2011;2022-11-17 14:19:06:921
-0.3609;0.3313;9.7431;-0.2227;0.3602;9.7975;-0.0617;-0.0505;-0.1279;2.07;1.33;-0.47;235.3;21.63;-0.44;-26.12;272.6;-2.1;1.3;5.0;41.262;;;;NaN;;;;0 / 0;2022;2022-11-17 14:19:06:932
-0.3609;0.3313;9.7431;-0.2361;0.3806;9.7964;-0.0617;-0.0505;-0.1279;2.07;1.33;-0.47;235.3;21.63;-0.44;-26.12;272.6;-2.1;1.3;5.0;41.262;;;;NaN;;;;0 / 0;2032;2022-11-17 14:19:06:942
-0.3609;0.3313;9.7431;-0.2361;0.3806;9.7964;-0.0617;-0.0505;-0.1279;2.07;1.33;-0.47;235.3;21.63;-0.44;-26.12;272.6;-2.1;1.3;5.0;41.262;;;;NaN;;;;0 / 0;2042;2022-11-17 14:19:06:952
-0.3609;0.3313;9.7431;-0.2361;0.3806;9.7964;-0.0617;-0.0505;-0.1279;2.07;1.33;-0.47;235.3;21.63;-0.44;-26.12;272.6;-2.1;1.3;5.0;41.262;;;;NaN;;;;0 / 0;2051;2022-11-17 14:19:06:961
-0.3609;0.3313;9.7431;-0.2361;0.3806;9.7964;-0.0617;-0.0505;-0.1279;2.07;1.33;-0.47;235.3;21.63;-0.44;-26.12;272.6;-2.1;1.3;5.0;41.262;;;;NaN;;;;0 / 0;2061;2022-11-17 14:19:06:971
-0.3609;0.3313;9.7431;-0.2361;0.3806;9.7964;-0.1265;-0.0637;-0.0971;2.07;1.33;-0.47;235.3;21.31;-1.0;-25.75;270.08;-2.22;1.38;5.0;41.262;;;;NaN;;;;0 / 0;2072;2022-11-17 14:19:06:982
-0.3609;0.3313;9.7431;-0.2361;0.3806;9.7964;-0.1265;-0.0637;-0.0971;2.07;1.33;-0.47;235.3;21.31;-1.0;-25.75;270.08;-2.22;1.38;5.0;41.262;;;;NaN;;;;0 / 0;2082;2022-11-17 14:19:06:992
-0.3609;0.3313;9.7431;-0.2361;0.3806;9.7964;-0.1265;-0.0637;-0.0971;2.07;1.33;-0.47;235.3;21.31;-1.0;-25.75;270.08;-2.22;1.38;5.0;41.262;;;;NaN;;;;0 / 0;2092;2022-11-17 14:19:07:002
-0.3609;0.3313;9.7431;-0.2361;0.3806;9.7964;-0.1265;-0.0637;-0.0971;2.07;1.33;-0.47;235.3;21.31;-1.0;-25.75;270.08;-2.22;1.38;5.0;41.262;;;;NaN;;;;0 / 0;2102;2022-11-17 14:19:07:012
-0.3609;0.3313;9.7431;-0.2361;0.3806;9.7964;-0.1265;-0.0637;-0.0971;2.07;1.33;-0.47;235.3;21.31;-1.0;-25.75;270.08;-2.22;1.38;5.0;41.262;;;;NaN;;;;0 / 0;2113;2022-11-17 14:19:07:023
-0.3609;0.3313;9.7431;-0.2361;0.3806;9.7964;-0.1265;-0.0637;-0.0971;2.07;1.33;-0.47;235.3;21.31;-1.0;-25.75;270.08;-2.22;1.38;5.0;41.262;;;;NaN;;;;0 / 0;2121;2022-11-17 14:19:07:031
-0.365;0.3004;9.8424;-0.2466;0.3804;9.7961;-0.1265;-0.0637;-0.0971;1.09;-1.44;-0.11;235.3;21.31;-1.0;-25.75;270.08;-2.22;1.38;5.0;41.262;;;;NaN;;;;0 / 0;2131;2022-11-17 14:19:07:041
-0.365;0.3004;9.8424;-0.2466;0.3804;9.7961;-0.1265;-0.0637;-0.0971;1.09;-1.44;-0.11;235.3;21.31;-1.0;-25.75;270.08;-2.22;1.38;5.0;41.262;;;;NaN;;;;0 / 0;2141;2022-11-17 14:19:07:051
-0.365;0.3004;9.8424;-0.2466;0.3804;9.7961;-0.1265;-0.0637;-0.0971;1.09;-1.44;-0.11;235.3;21.31;-1.0;-25.75;270.08;-2.22;1.38;5.0;41.262;;;;NaN;;;;0 / 0;2151;2022-11-17 14:19:07:061
-0.365;0.3004;9.8424;-0.2466;0.3804;9.7961;-0.1265;-0.0637;-0.0971;1.09;-1.44;-0.11;235.3;21.31;-1.0;-25.75;270.08;-2.22;1.38;5.0;41.262;;;;NaN;;;;0 / 0;2161;2022-11-17 14:19:07:071
-0.365;0.3004;9.8424;-0.2466;0.3804;9.7961;-0.1161;-0.0653;-0.2345;1.09;-1.44;-0.11;235.3;21.31;-1.0;-25.75;270.08;-2.22;1.38;5.0;41.262;;;;NaN;;;;0 / 0;2171;2022-11-17 14:19:07:081
-0.365;0.3004;9.8424;-0.2466;0.3804;9.7961;-0.1161;-0.0653;-0.2345;1.09;-1.44;-0.11;235.3;21.31;-1.0;-25.75;270.08;-2.22;1.38;5.0;41.262;;;;NaN;;;;0 / 0;2182;2022-11-17 14:19:07:092
-0.365;0.3004;9.8424;-0.2466;0.3804;9.7961;-0.1161;-0.0653;-0.2345;1.09;-1.44;-0.11;235.3;21.19;-0.37;-25.44;272.78;-2.22;1.44;5.0;41.262;;;;NaN;;;;0 / 0;2192;2022-11-17 14:19:07:102
-0.365;0.3004;9.8424;-0.2466;0.3804;9.7961;-0.1161;-0.0653;-0.2345;1.09;-1.44;-0.11;235.3;21.19;-0.37;-25.44;272.78;-2.22;1.44;5.0;41.262;;;;NaN;;;;0 / 0;2201;2022-11-17 14:19:07:111
-0.365;0.3004;9.8424;-0.2466;0.3804;9.7961;-0.1161;-0.0653;-0.2345;1.09;-1.44;-0.11;235.3;21.19;-0.37;-25.44;272.78;-2.22;1.44;5.0;41.262;;;;NaN;;;;0 / 0;2211;2022-11-17 14:19:07:121
-0.365;0.3004;9.8424;-0.2466;0.3804;9.7961;-0.1161;-0.0653;-0.2345;1.09;-1.44;-0.11;235.3;21.19;-0.37;-25.44;272.78;-2.22;1.44;5.0;41.262;;;;NaN;;;;0 / 0;2222;2022-11-17 14:19:07:132
-0.365;0.3004;9.8424;-0.2365;0.3624;9.797;-0.1161;-0.0653;-0.2345;1.09;-1.44;-0.11;235.3;21.19;-0.37;-25.44;272.78;-2.22;1.44;5.0;41.262;;;;NaN;;;;0 / 0;2232;2022-11-17 14:19:07:142
-0.365;0.3004;9.8424;-0.2365;0.3624;9.797;-0.1161;-0.0653;-0.2345;1.09;-1.44;-0.11;235.3;21.19;-0.37;-25.44;272.78;-2.22;1.44;5.0;41.262;;;;NaN;;;;0 / 0;2241;2022-11-17 14:19:07:151
-0.365;0.3004;9.8424;-0.2365;0.3624;9.797;-0.1161;-0.0653;-0.2345;1.09;-1.44;-0.11;235.3;21.19;-0.37;-25.44;272.78;-2.22;1.44;5.0;41.262;;;;NaN;;;;0 / 0;2251;2022-11-17 14:19:07:161
-0.3894;0.325;9.654;-0.2365;0.3624;9.797;-0.1161;-0.0653;-0.2345;0.79;0.2;0.29;235.3;21.19;-0.37;-25.44;272.78;-2.22;1.44;5.0;41.262;;;;NaN;;;;0 / 0;2262;2022-11-17 14:19:07:172
-0.3894;0.325;9.654;-0.2365;0.3624;9.797;-0.1311;-0.0449;-0.176;0.79;0.2;0.29;235.3;21.19;-0.37;-25.44;272.78;-2.22;1.44;5.0;41.262;;;;NaN;;;;0 / 0;2271;2022-11-17 14:19:07:181
-0.3894;0.325;9.654;-0.2365;0.3624;9.797;-0.1311;-0.0449;-0.176;0.79;0.2;0.29;235.3;21.19;-0.37;-25.44;272.78;-2.22;1.44;5.0;41.262;;;;NaN;;;;0 / 0;2281;2022-11-17 14:19:07:191
-0.3894;0.325;9.654;-0.2365;0.3624;9.797;-0.1311;-0.0449;-0.176;0.79;0.2;0.29;235.3;21.19;-0.37;-25.44;272.78;-2.22;1.44;5.0;41.262;;;;NaN;;;;0 / 0;2291;2022-11-17 14:19:07:201
-0.3894;0.325;9.654;-0.2365;0.3624;9.797;-0.1311;-0.0449;-0.176;0.79;0.2;0.29;235.3;21.19;-0.37;-25.44;272.78;-2.22;1.44;5.0;41.262;;;;NaN;;;;0 / 0;2302;2022-11-17 14:19:07:212
-0.3894;0.325;9.654;-0.2365;0.3624;9.797;-0.1311;-0.0449;-0.176;0.79;0.2;0.29;236.3;21.31;-0.75;-26.19;269.94;-2.12;1.38;5.0;41.262;;;;NaN;;;;0 / 0;2311;2022-11-17 14:19:07:221
-0.3894;0.325;9.654;-0.2365;0.3624;9.797;-0.1311;-0.0449;-0.176;0.79;0.2;0.29;236.3;21.31;-0.75;-26.19;269.94;-2.12;1.38;5.0;41.262;;;;NaN;;;;0 / 0;2322;2022-11-17 14:19:07:232
-0.3894;0.325;9.654;-0.2372;0.3522;9.7974;-0.1311;-0.0449;-0.176;0.79;0.2;0.29;236.3;21.31;-0.75;-26.19;269.94;-2.12;1.38;5.0;41.37;;;;NaN;;;;0 / 0;2331;2022-11-17 14:19:07:241
-0.3894;0.325;9.654;-0.2372;0.3522;9.7974;-0.1311;-0.0449;-0.176;0.79;0.2;0.29;236.3;21.31;-0.75;-26.19;269.94;-2.12;1.38;5.0;41.37;;;;NaN;;;;0 / 0;2342;2022-11-17 14:19:07:252
-0.3894;0.325;9.654;-0.2372;0.3522;9.7974;-0.1311;-0.0449;-0.176;0.79;0.2;0.29;236.3;21.31;-0.75;-26.19;269.94;-2.12;1.38;5.0;41.37;;;;NaN;;;;0 / 0;2351;2022-11-17 14:19:07:261
-0.3894;0.325;9.654;-0.2372;0.3522;9.7974;-0.1311;-0.0449;-0.176;0.79;0.2;0.29;236.3;21.31;-0.75;-26.19;269.94;-2.12;1.38;5.0;41.37;;;;NaN;;;;0 / 0;2361;2022-11-17 14:19:07:271
-0.3894;0.325;9.654;-0.2372;0.3522;9.7974;-0.0647;-0.1041;0.0286;0.79;0.2;0.29;236.3;21.31;-0.75;-26.19;269.94;-2.12;1.38;5.0;41.37;;;;NaN;;;;0 / 0;2371;2022-11-17 14:19:07:281
-0.3894;0.325;9.654;-0.2372;0.3522;9.7974;-0.0647;-0.1041;0.0286;0.79;0.2;0.29;236.3;21.31;-0.75;-26.19;269.94;-2.12;1.38;5.0;41.37;;;;NaN;;;;0 / 0;2381;2022-11-17 14:19:07:291
-0.3252;0.3227;9.8038;-0.2372;0.3522;9.7974;-0.0647;-0.1041;0.0286;-0.59;2.49;0.93;236.3;21.31;-0.75;-26.19;269.94;-2.12;1.38;5.0;41.37;;;;NaN;;;;0 / 0;2393;2022-11-17 14:19:07:303
-0.3252;0.3227;9.8038;-0.2372;0.3522;9.7974;-0.0647;-0.1041;0.0286;-0.59;2.49;0.93;236.3;21.31;-0.75;-26.19;269.94;-2.12;1.38;5.0;41.37;;;;NaN;;;;0 / 0;2402;2022-11-17 14:19:07:312
-0.3252;0.3227;9.8038;-0.2372;0.3522;9.7974;-0.0647;-0.1041;0.0286;-0.59;2.49;0.93;236.3;21.31;-0.75;-26.19;269.94;-2.12;1.38;5.0;41.37;;;;NaN;;;;0 / 0;2411;2022-11-17 14:19:07:321
-0.3252;0.3227;9.8038;-0.2372;0.3522;9.7974;-0.0647;-0.1041;0.0286;-0.59;2.49;0.93;236.3;21.31;-0.75;-26.19;269.94;-2.12;1.38;5.0;41.37;;;;NaN;;;;0 / 0;2421;2022-11-17 14:19:07:331
-0.3252;0.3227;9.8038;-0.2369;0.3598;9.7971;-0.0647;-0.1041;0.0286;-0.59;2.49;0.93;236.3;21.25;-0.25;-25.81;272.68;-2.06;1.39;5.0;41.37;;;;NaN;;;;0 / 0;2432;2022-11-17 14:19:07:342
-0.3252;0.3227;9.8038;-0.2369;0.3598;9.7971;-0.0647;-0.1041;0.0286;-0.59;2.49;0.93;236.3;21.25;-0.25;-25.81;272.68;-2.06;1.39;5.0;41.37;;;;NaN;;;;0 / 0;2442;2022-11-17 14:19:07:352
-0.3252;0.3227;9.8038;-0.2369;0.3598;9.7971;-0.0647;-0.1041;0.0286;-0.59;2.49;0.93;236.3;21.25;-0.25;-25.81;272.68;-2.06;1.39;5.0;41.37;;;;NaN;;;;0 / 0;2452;2022-11-17 14:19:07:362
-0.3252;0.3227;9.8038;-0.2369;0.3598;9.7971;-0.0647;-0.1041;0.0286;-0.59;2.49;0.93;236.3;21.25;-0.25;-25.81;272.68;-2.06;1.39;5.0;41.37;;;;NaN;;;;0 / 0;2462;2022-11-17 14:19:07:372
-0.3252;0.3227;9.8038;-0.2369;0.3598;9.7971;-0.0774;-0.0611;-0.1178;-0.59;2.49;0.93;236.3;21.25;-0.25;-25.81;272.68;-2.06;1.39;5.0;41.37;;;;NaN;;;;0 / 0;2472;2022-11-17 14:19:07:382
-0.3252;0.3227;9.8038;-0.2369;0.3598;9.7971;-0.0774;-0.0611;-0.1178;-0.59;2.49;0.93;236.3;21.25;-0.25;-25.81;272.68;-2.06;1.39;5.0;41.37;;;;NaN;;;;0 / 0;2482;2022-11-17 14:19:07:392
-0.3252;0.3227;9.8038;-0.2369;0.3598;9.7971;-0.0774;-0.0611;-0.1178;-0.59;2.49;0.93;236.3;21.25;-0.25;-25.81;272.68;-2.06;1.39;5.0;41.37;;;;NaN;;;;0 / 0;2491;2022-11-17 14:19:07:401
-0.3252;0.3227;9.8038;-0.2369;0.3598;9.7971;-0.0774;-0.0611;-0.1178;-0.59;2.49;0.93;236.3;21.25;-0.25;-25.81;272.68;-2.06;1.39;5.0;41.37;;;;NaN;;;;0 / 0;2502;2022-11-17 14:19:07:412
-0.3252;0.3227;9.8038;-0.2369;0.3598;9.7971;-0.0774;-0.0611;-0.1178;-0.59;2.49;0.93;236.3;21.25;-0.25;-25.81;272.68;-2.06;1.39;5.0;41.37;;;;NaN;;;;0 / 0;2512;2022-11-17 14:19:07:422
-0.3478;0.3067;9.7998;-0.2369;0.3598;9.7971;-0.0774;-0.0611;-0.1178;-0.59;2.49;0.93;236.3;21.25;-0.25;-25.81;272.68;-2.06;1.39;5.0;41.37;;;;NaN;;;;0 / 0;2522;2022-11-17 14:19:07:432
-0.3478;0.3067;9.7998;-0.2348;0.376;9.7966;-0.0774;-0.0611;-0.1178;1.27;0.63;-0.54;236.3;21.25;-0.25;-25.81;272.68;-2.06;1.39;5.0;41.37;;;;NaN;;;;0 / 0;2531;2022-11-17 14:19:07:441
-0.3478;0.3067;9.7998;-0.2348;0.376;9.7966;-0.0774;-0.0611;-0.1178;1.27;0.63;-0.54;236.3;21.25;-0.25;-25.81;272.68;-2.06;1.39;5.0;41.37;;;;NaN;;;;0 / 0;2542;2022-11-17 14:19:07:452
-0.3478;0.3067;9.7998;-0.2348;0.376;9.7966;-0.0774;-0.0611;-0.1178;1.27;0.63;-0.54;236.3;21.44;-0.69;-26.31;270.05;-2.2;1.37;5.0;41.37;;;;NaN;;;;0 / 0;2551;2022-11-17 14:19:07:461
-0.3478;0.3067;9.7998;-0.2348;0.376;9.7966;-0.0774;-0.0611;-0.1178;1.27;0.63;-0.54;236.3;21.44;-0.69;-26.31;270.05;-2.2;1.37;5.0;41.37;;;;NaN;;;;0 / 0;2561;2022-11-17 14:19:07:471
-0.3478;0.3067;9.7998;-0.2348;0.376;9.7966;-0.0373;-0.0478;-0.1267;1.27;0.63;-0.54;236.3;21.44;-0.69;-26.31;270.05;-2.2;1.37;5.0;41.37;;;;NaN;;;;0 / 0;2571;2022-11-17 14:19:07:481
-0.3478;0.3067;9.7998;-0.2348;0.376;9.7966;-0.0373;-0.0478;-0.1267;1.27;0.63;-0.54;236.3;21.44;-0.69;-26.31;270.05;-2.2;1.37;5.0;41.37;;;;NaN;;;;0 / 0;2581;2022-11-17 14:19:07:491
-0.3478;0.3067;9.7998;-0.2348;0.376;9.7966;-0.0373;-0.0478;-0.1267;1.27;0.63;-0.54;236.3;21.44;-0.69;-26.31;270.05;-2.2;1.37;5.0;41.37;;;;NaN;;;;0 / 0;2591;2022-11-17 14:19:07:501
-0.3478;0.3067;9.7998;-0.2348;0.376;9.7966;-0.0373;-0.0478;-0.1267;1.27;0.63;-0.54;236.3;21.44;-0.69;-26.31;270.05;-2.2;1.37;5.0;41.37;;;;NaN;;;;0 / 0;2601;2022-11-17 14:19:07:511
-0.3478;0.3067;9.7998;-0.2348;0.376;9.7966;-0.0373;-0.0478;-0.1267;1.27;0.63;-0.54;236.3;21.44;-0.69;-26.31;270.05;-2.2;1.37;5.0;41.37;;;;NaN;;;;0 / 0;2612;2022-11-17 14:19:07:522
-0.3478;0.3067;9.7998;-0.2348;0.376;9.7966;-0.0373;-0.0478;-0.1267;1.27;0.63;-0.54;236.3;21.44;-0.69;-26.31;270.05;-2.2;1.37;5.0;41.37;;;;NaN;;;;0 / 0;2622;2022-11-17 14:19:07:532
-0.3478;0.3067;9.7998;-0.2533;0.3876;9.7957;-0.0373;-0.0478;-0.1267;1.27;0.63;-0.54;236.3;21.44;-0.69;-26.31;270.05;-2.2;1.37;5.0;41.37;;;;NaN;;;;0 / 0;2632;2022-11-17 14:19:07:542
-0.3478;0.3067;9.7998;-0.2533;0.3876;9.7957;-0.0373;-0.0478;-0.1267;1.27;0.63;-0.54;236.3;21.44;-0.69;-26.31;270.05;-2.2;1.37;5.0;41.37;;;;NaN;;;;0 / 0;2641;2022-11-17 14:19:07:551
-0.3478;0.3067;9.7998;-0.2533;0.3876;9.7957;-0.0373;-0.0478;-0.1267;1.27;0.63;-0.54;236.3;21.44;-0.69;-26.31;270.05;-2.2;1.37;5.0;41.37;;;;NaN;;;;0 / 0;2651;2022-11-17 14:19:07:561
-0.3094;0.2637;9.6377;-0.2533;0.3876;9.7957;-0.0373;-0.0478;-0.1267;-3.88;-4.89;1.08;235.8;21.44;-0.69;-26.31;270.05;-2.2;1.37;5.0;39.932;;;;NaN;;;;0 / 0;2661;2022-11-17 14:19:07:571
-0.3094;0.2637;9.6377;-0.2533;0.3876;9.7957;-0.0483;-0.1246;-0.1767;-3.88;-4.89;1.08;235.8;20.94;-0.19;-25.5;272.84;-2.27;1.48;5.0;39.932;;;;NaN;;;;0 / 0;2671;2022-11-17 14:19:07:581
-0.3094;0.2637;9.6377;-0.2533;0.3876;9.7957;-0.0483;-0.1246;-0.1767;-3.88;-4.89;1.08;235.8;20.94;-0.19;-25.5;272.84;-2.27;1.48;5.0;39.932;;;;NaN;;;;0 / 0;2681;2022-11-17 14:19:07:591
-0.3094;0.2637;9.6377;-0.2533;0.3876;9.7957;-0.0483;-0.1246;-0.1767;-3.88;-4.89;1.08;235.8;20.94;-0.19;-25.5;272.84;-2.27;1.48;5.0;39.932;;;;NaN;;;;0 / 0;2691;2022-11-17 14:19:07:601
-0.3094;0.2637;9.6377;-0.2533;0.3876;9.7957;-0.0483;-0.1246;-0.1767;-3.88;-4.89;1.08;235.8;20.94;-0.19;-25.5;272.84;-2.27;1.48;5.0;39.932;;;;NaN;;;;0 / 0;2702;2022-11-17 14:19:07:612
-0.3094;0.2637;9.6377;-0.2533;0.3876;9.7957;-0.0483;-0.1246;-0.1767;-3.88;-4.89;1.08;235.8;20.94;-0.19;-25.5;272.84;-2.27;1.48;5.0;39.932;;;;NaN;;;;0 / 0;2712;2022-11-17 14:19:07:622
-0.3094;0.2637;9.6377;-0.2533;0.3876;9.7957;-0.0483;-0.1246;-0.1767;-3.88;-4.89;1.08;235.8;20.94;-0.19;-25.5;272.84;-2.27;1.48;5.0;39.932;;;;NaN;;;;0 / 0;2722;2022-11-17 14:19:07:632
-0.3094;0.2637;9.6377;-0.1872;0.317;9.7997;-0.0483;-0.1246;-0.1767;-3.88;-4.89;1.08;235.8;20.94;-0.19;-25.5;272.84;-2.27;1.48;5.0;39.932;;;;NaN;;;;0 / 0;2732;2022-11-17 14:19:07:642
-0.3094;0.2637;9.6377;-0.1872;0.317;9.7997;-0.0483;-0.1246;-0.1767;-3.88;-4.89;1.08;235.8;20.94;-0.19;-25.5;272.84;-2.27;1.48;5.0;39.932;;;;NaN;;;;0 / 0;2742;2022-11-17 14:19:07:652
-0.3094;0.2637;9.6377;-0.1872;0.317;9.7997;-0.0483;-0.1246;-0.1767;-3.88;-4.89;1.08;235.8;20.94;-0.19;-25.5;272.84;-2.27;1.48;5.0;39.932;;;;NaN;;;;0 / 0;2752;2022-11-17 14:19:07:662
-0.3094;0.2637;9.6377;-0.1872;0.317;9.7997;-0.0483;-0.1246;-0.1767;-3.88;-4.89;1.08;235.8;20.94;-0.19;-25.5;272.84;-2.27;1.48;5.0;39.932;;;;NaN;;;;0 / 0;2762;2022-11-17 14:19:07:672
-0.3094;0.2637;9.6377;-0.1872;0.317;9.7997;-0.1557;-0.1108;0.0268;-3.88;-4.89;1.08;235.8;20.94;-0.19;-25.5;272.84;-2.27;1.48;5.0;39.932;;;;NaN;;;;0 / 0;2772;2022-11-17 14:19:07:682
-0.3094;0.2637;9.6377;-0.1872;0.317;9.7997;-0.1557;-0.1108;0.0268;-3.88;-4.89;1.08;235.8;20.94;-0.19;-25.5;272.84;-2.27;1.48;5.0;39.932;;;;NaN;;;;0 / 0;2782;2022-11-17 14:19:07:692
-0.341;0.2885;9.7537;-0.1872;0.317;9.7997;-0.1557;-0.1108;0.0268;3.29;2.86;0.62;235.8;21.69;-0.75;-25.94;269.61;-1.85;1.09;5.0;39.932;;;;NaN;;;;0 / 0;2792;2022-11-17 14:19:07:702
-0.341;0.2885;9.7537;-0.1872;0.317;9.7997;-0.1557;-0.1108;0.0268;3.29;2.86;0.62;235.8;21.69;-0.75;-25.94;269.61;-1.85;1.09;5.0;39.932;;;;NaN;;;;0 / 0;2801;2022-11-17 14:19:07:711
-0.341;0.2885;9.7537;-0.1872;0.317;9.7997;-0.1557;-0.1108;0.0268;3.29;2.86;0.62;235.8;21.69;-0.75;-25.94;269.61;-1.85;1.09;5.0;39.932;;;;NaN;;;;0 / 0;2811;2022-11-17 14:19:07:721
-0.341;0.2885;9.7537;-0.1872;0.317;9.7997;-0.1557;-0.1108;0.0268;3.29;2.86;0.62;235.8;21.69;-0.75;-25.94;269.61;-1.85;1.09;5.0;39.932;;;;NaN;;;;0 / 0;2822;2022-11-17 14:19:07:732
-0.341;0.2885;9.7537;-0.2187;0.3545;9.7977;-0.1557;-0.1108;0.0268;3.29;2.86;0.62;235.8;21.69;-0.75;-25.94;269.61;-1.85;1.09;5.0;39.932;;;;NaN;;;;0 / 0;2831;2022-11-17 14:19:07:741
-0.341;0.2885;9.7537;-0.2187;0.3545;9.7977;-0.1557;-0.1108;0.0268;3.29;2.86;0.62;235.8;21.69;-0.75;-25.94;269.61;-1.85;1.09;5.0;39.932;;;;NaN;;;;0 / 0;2842;2022-11-17 14:19:07:752
-0.341;0.2885;9.7537;-0.2187;0.3545;9.7977;-0.1557;-0.1108;0.0268;3.29;2.86;0.62;235.8;21.69;-0.75;-25.94;269.61;-1.85;1.09;5.0;39.932;;;;NaN;;;;0 / 0;2852;2022-11-17 14:19:07:762
-0.341;0.2885;9.7537;-0.2187;0.3545;9.7977;-0.1557;-0.1108;0.0268;3.29;2.86;0.62;235.8;21.69;-0.75;-25.94;269.61;-1.85;1.09;5.0;39.932;;;;NaN;;;;0 / 0;2861;2022-11-17 14:19:07:771
-0.341;0.2885;9.7537;-0.2187;0.3545;9.7977;-0.1032;-0.0621;-0.1974;3.29;2.86;0.62;235.8;21.69;-0.75;-25.94;269.61;-1.85;1.09;5.0;39.932;;;;NaN;;;;0 / 0;2871;2022-11-17 14:19:07:781
-0.341;0.2885;9.7537;-0.2187;0.3545;9.7977;-0.1032;-0.0621;-0.1974;3.29;2.86;0.62;235.8;21.69;-0.75;-25.94;269.61;-1.85;1.09;5.0;39.932;;;;NaN;;;;0 / 0;2882;2022-11-17 14:19:07:792
-0.341;0.2885;9.7537;-0.2187;0.3545;9.7977;-0.1032;-0.0621;-0.1974;3.29;2.86;0.62;235.8;21.69;-0.75;-25.94;269.61;-1.85;1.09;5.0;39.932;;;;NaN;;;;0 / 0;2892;2022-11-17 14:19:07:802
-0.341;0.2885;9.7537;-0.2187;0.3545;9.7977;-0.1032;-0.0621;-0.1974;3.29;2.86;0.62;235.8;21.69;-0.75;-25.94;269.61;-1.85;1.09;5.0;39.932;;;;NaN;;;;0 / 0;2902;2022-11-17 14:19:07:812
-0.341;0.2885;9.7537;-0.2187;0.3545;9.7977;-0.1032;-0.0621;-0.1974;3.29;2.86;0.62;235.8;21.44;-0.56;-25.94;269.88;-2.07;1.28;5.0;39.932;;;;NaN;;;;0 / 0;2911;2022-11-17 14:19:07:821
-0.2872;0.2903;9.7184;-0.2187;0.3545;9.7977;-0.1032;-0.0621;-0.1974;-1.93;0.75;-0.17;235.8;21.44;-0.56;-25.94;269.88;-2.07;1.28;5.0;39.932;;;;NaN;;;;0 / 0;2921;2022-11-17 14:19:07:831
-0.2872;0.2903;9.7184;-0.2418;0.3033;9.7989;-0.1032;-0.0621;-0.1974;-1.93;0.75;-0.17;235.8;21.44;-0.56;-25.94;269.88;-2.07;1.28;5.0;39.932;;;;NaN;;;;0 / 0;2931;2022-11-17 14:19:07:841
-0.2872;0.2903;9.7184;-0.2418;0.3033;9.7989;-0.1032;-0.0621;-0.1974;-1.93;0.75;-0.17;235.8;21.44;-0.56;-25.94;269.88;-2.07;1.28;5.0;39.932;;;;NaN;;;;0 / 0;2941;2022-11-17 14:19:07:851
-0.2872;0.2903;9.7184;-0.2418;0.3033;9.7989;-0.1032;-0.0621;-0.1974;-1.93;0.75;-0.17;235.8;21.44;-0.56;-25.94;269.88;-2.07;1.28;5.0;39.932;;;;NaN;;;;0 / 0;2951;2022-11-17 14:19:07:861
-0.2872;0.2903;9.7184;-0.2418;0.3033;9.7989;-0.1032;-0.0621;-0.1974;-1.93;0.75;-0.17;235.8;21.44;-0.56;-25.94;269.88;-2.07;1.28;5.0;39.932;;;;NaN;;;;0 / 0;2962;2022-11-17 14:19:07:872
-0.2872;0.2903;9.7184;-0.2418;0.3033;9.7989;-0.0263;-0.0656;-0.1001;-1.93;0.75;-0.17;235.8;21.44;-0.56;-25.94;269.88;-2.07;1.28;5.0;39.932;;;;NaN;;;;0 / 0;2971;2022-11-17 14:19:07:881
-0.2872;0.2903;9.7184;-0.2418;0.3033;9.7989;-0.0263;-0.0656;-0.1001;-1.93;0.75;-0.17;235.8;21.44;-0.56;-25.94;269.88;-2.07;1.28;5.0;39.949;;;;NaN;;;;0 / 0;2982;2022-11-17 14:19:07:892
-0.2872;0.2903;9.7184;-0.2418;0.3033;9.7989;-0.0263;-0.0656;-0.1001;-1.93;0.75;-0.17;235.8;21.44;-0.56;-25.94;269.88;-2.07;1.28;5.0;39.949;;;;NaN;;;;0 / 0;2992;2022-11-17 14:19:07:902
-0.2872;0.2903;9.7184;-0.2418;0.3033;9.7989;-0.0263;-0.0656;-0.1001;-1.93;0.75;-0.17;235.8;21.44;-0.56;-25.94;269.88;-2.07;1.28;5.0;39.949;;;;NaN;;;;0 / 0;3002;2022-11-17 14:19:07:912
-0.2872;0.2903;9.7184;-0.2418;0.3033;9.7989;-0.0263;-0.0656;-0.1001;-1.93;0.75;-0.17;235.8;21.44;-0.56;-25.94;269.88;-2.07;1.28;5.0;39.949;;;;NaN;;;;0 / 0;3012;2022-11-17 14:19:07:922
-0.2872;0.2903;9.7184;-0.2418;0.3033;9.7989;-0.0263;-0.0656;-0.1001;-1.93;0.75;-0.17;235.8;21.44;-0.56;-25.94;269.88;-2.07;1.28;5.0;39.949;;;;NaN;;;;0 / 0;3022;2022-11-17 14:19:07:932
-0.2872;0.2903;9.7184;-0.2418;0.3033;9.7989;-0.0263;-0.0656;-0.1001;-1.93;0.75;-0.17;235.8;21.88;-0.37;-26.0;272.2;-1.77;1.41;5.0;39.949;;;;NaN;;;;0 / 0;3032;2022-11-17 14:19:07:942
-0.2872;0.2903;9.7184;-0.2418;0.3033;9.7989;-0.0263;-0.0656;-0.1001;-1.93;0.75;-0.17;235.8;21.88;-0.37;-26.0;272.2;-1.77;1.41;5.0;39.949;;;;NaN;;;;0 / 0;3042;2022-11-17 14:19:07:952
-0.2872;0.2903;9.7184;-0.2418;0.3033;9.7989;-0.0263;-0.0656;-0.1001;-1.93;0.75;-0.17;235.8;21.88;-0.37;-26.0;272.2;-1.77;1.41;5.0;39.949;;;;NaN;;;;0 / 0;3052;2022-11-17 14:19:07:962
-0.2872;0.2903;9.7184;-0.2418;0.3033;9.7989;-0.0263;-0.0656;-0.1001;-1.93;0.75;-0.17;235.8;21.88;-0.37;-26.0;272.2;-1.77;1.41;5.0;39.949;;;;NaN;;;;0 / 0;3062;2022-11-17 14:19:07:972
-0.3878;0.3046;9.8001;-0.28;0.3128;9.7976;-0.1317;-0.1069;0.0089;-3.36;0.42;0.68;235.8;21.88;-0.37;-26.0;272.2;-1.77;1.41;5.0;39.949;;;;NaN;;;;0 / 0;3071;2022-11-17 14:19:07:981
-0.3878;0.3046;9.8001;-0.28;0.3128;9.7976;-0.1317;-0.1069;0.0089;-3.36;0.42;0.68;235.8;21.88;-0.37;-26.0;272.2;-1.77;1.41;5.0;39.949;;;;NaN;;;;0 / 0;3081;2022-11-17 14:19:07:991
-0.3878;0.3046;9.8001;-0.28;0.3128;9.7976;-0.1317;-0.1069;0.0089;-3.36;0.42;0.68;235.8;21.88;-0.37;-26.0;272.2;-1.77;1.41;5.0;39.949;;;;NaN;;;;0 / 0;3091;2022-11-17 14:19:08:001
-0.3878;0.3046;9.8001;-0.28;0.3128;9.7976;-0.1317;-0.1069;0.0089;-3.36;0.42;0.68;235.8;21.88;-0.37;-26.0;272.2;-1.77;1.41;5.0;39.949;;;;NaN;;;;0 / 0;3102;2022-11-17 14:19:08:012
-0.3878;0.3046;9.8001;-0.28;0.3128;9.7976;-0.1317;-0.1069;0.0089;-3.36;0.42;0.68;235.8;21.88;-0.37;-26.0;272.2;-1.77;1.41;5.0;39.949;;;;NaN;;;;0 / 0;3112;2022-11-17 14:19:08:022
-0.3878;0.3046;9.8001;-0.28;0.3128;9.7976;-0.1317;-0.1069;0.0089;-3.36;0.42;0.68;235.8;21.88;-0.37;-26.0;272.2;-1.77;1.41;5.0;39.949;;;;NaN;;;;0 / 0;3121;2022-11-17 14:19:08:031
-0.3878;0.3046;9.8001;-0.28;0.3128;9.7976;-0.1317;-0.1069;0.0089;-3.36;0.42;0.68;235.8;21.88;-0.37;-26.0;272.2;-1.77;1.41;5.0;39.949;;;;NaN;;;;0 / 0;3131;2022-11-17 14:19:08:041
-0.3878;0.3046;9.8001;-0.28;0.3128;9.7976;-0.1317;-0.1069;0.0089;-3.36;0.42;0.68;235.8;21.88;-0.37;-26.0;272.2;-1.77;1.41;5.0;39.949;;;;NaN;;;;0 / 0;3141;2022-11-17 14:19:08:051
-0.3878;0.3046;9.8001;-0.28;0.3128;9.7976;-0.1317;-0.1069;0.0089;-3.36;0.42;0.68;235.8;21.44;-0.5;-26.75;272.49;-1.83;1.64;5.0;39.949;;;;NaN;;;;0 / 0;3152;2022-11-17 14:19:08:062
-0.3878;0.3046;9.8001;-0.28;0.3128;9.7976;-0.1317;-0.1069;0.0089;-3.36;0.42;0.68;235.8;21.44;-0.5;-26.75;272.49;-1.83;1.64;5.0;39.949;;;;NaN;;;;0 / 0;3162;2022-11-17 14:19:08:072
-0.3878;0.3046;9.8001;-0.2805;0.2682;9.7989;-0.0626;-0.1309;-0.0413;-3.36;0.42;0.68;235.8;21.44;-0.5;-26.75;272.49;-1.83;1.64;5.0;39.949;;;;NaN;;;;0 / 0;3172;2022-11-17 14:19:08:082
-0.3878;0.3046;9.8001;-0.2805;0.2682;9.7989;-0.0626;-0.1309;-0.0413;-3.36;0.42;0.68;235.8;21.44;-0.5;-26.75;272.49;-1.83;1.64;5.0;39.949;;;;NaN;;;;0 / 0;3181;2022-11-17 14:19:08:091
-0.3576;0.1538;9.7374;-0.2805;0.2682;9.7989;-0.0626;-0.1309;-0.0413;-1.5;0.66;-0.05;235.8;21.44;-0.5;-26.75;272.49;-1.83;1.64;5.0;39.949;;;;NaN;;;;0 / 0;3192;2022-11-17 14:19:08:102
-0.3576;0.1538;9.7374;-0.2805;0.2682;9.7989;-0.0626;-0.1309;-0.0413;-1.5;0.66;-0.05;235.8;21.44;-0.5;-26.75;272.49;-1.83;1.64;5.0;39.949;;;;NaN;;;;0 / 0;3202;2022-11-17 14:19:08:112
-0.3576;0.1538;9.7374;-0.2805;0.2682;9.7989;-0.0626;-0.1309;-0.0413;-1.5;0.66;-0.05;235.8;21.44;-0.5;-26.75;272.49;-1.83;1.64;5.0;39.949;;;;NaN;;;;0 / 0;3212;2022-11-17 14:19:08:122
-0.3576;0.1538;9.7374;-0.2805;0.2682;9.7989;-0.0626;-0.1309;-0.0413;-1.5;0.66;-0.05;235.8;21.44;-0.5;-26.75;272.49;-1.83;1.64;5.0;39.949;;;;NaN;;;;0 / 0;3222;2022-11-17 14:19:08:132
-0.3576;0.1538;9.7374;-0.2805;0.2682;9.7989;-0.0626;-0.1309;-0.0413;-1.5;0.66;-0.05;235.8;21.44;-0.5;-26.75;272.49;-1.83;1.64;5.0;39.949;;;;NaN;;;;0 / 0;3232;2022-11-17 14:19:08:142
-0.3576;0.1538;9.7374;-0.2805;0.2682;9.7989;-0.0626;-0.1309;-0.0413;-1.5;0.66;-0.05;235.8;21.44;-0.5;-26.75;272.49;-1.83;1.64;5.0;39.949;;;;NaN;;;;0 / 0;3242;2022-11-17 14:19:08:152
-0.3576;0.1538;9.7374;-0.2805;0.2682;9.7989;-0.0626;-0.1309;-0.0413;-1.5;0.66;-0.05;235.8;21.44;-0.5;-26.75;272.49;-1.83;1.64;5.0;39.949;;;;NaN;;;;0 / 0;3252;2022-11-17 14:19:08:162
-0.3576;0.1538;9.7374;-0.2805;0.2682;9.7989;-0.0626;-0.1309;-0.0413;-1.5;0.66;-0.05;235.8;21.44;-0.5;-26.75;272.49;-1.83;1.64;5.0;39.949;;;;NaN;;;;0 / 0;3262;2022-11-17 14:19:08:172
-0.3576;0.1538;9.7374;-0.2791;0.2517;9.7994;-0.1229;-0.085;-0.1398;-1.5;0.66;-0.05;235.8;21.38;-0.19;-26.25;272.06;-1.57;1.64;5.0;39.949;;;;NaN;;;;0 / 0;3272;2022-11-17 14:19:08:182
-0.3576;0.1538;9.7374;-0.2791;0.2517;9.7994;-0.1229;-0.085;-0.1398;-1.5;0.66;-0.05;235.8;21.38;-0.19;-26.25;272.06;-1.57;1.64;5.0;39.949;;;;NaN;;;;0 / 0;3282;2022-11-17 14:19:08:192
-0.3576;0.1538;9.7374;-0.2791;0.2517;9.7994;-0.1229;-0.085;-0.1398;-1.5;0.66;-0.05;235.8;21.38;-0.19;-26.25;272.06;-1.57;1.64;5.0;39.949;;;;NaN;;;;0 / 0;3291;2022-11-17 14:19:08:201
-0.3576;0.1538;9.7374;-0.2791;0.2517;9.7994;-0.1229;-0.085;-0.1398;-1.5;0.66;-0.05;235.8;21.38;-0.19;-26.25;272.06;-1.57;1.64;5.0;40.493;;;;NaN;;;;0 / 0;3302;2022-11-17 14:19:08:212
-0.3576;0.1538;9.7374;-0.2791;0.2517;9.7994;-0.1229;-0.085;-0.1398;-1.5;0.66;-0.05;235.8;21.38;-0.19;-26.25;272.06;-1.57;1.64;5.0;40.493;;;;NaN;;;;0 / 0;3311;2022-11-17 14:19:08:221
-0.3584;0.1832;9.8325;-0.2791;0.2517;9.7994;-0.1229;-0.085;-0.1398;-3.27;-2.08;0.1;235.8;21.38;-0.19;-26.25;272.06;-1.57;1.64;5.0;40.493;;;;NaN;;;;0 / 0;3322;2022-11-17 14:19:08:232
-0.3584;0.1832;9.8325;-0.2791;0.2517;9.7994;-0.1229;-0.085;-0.1398;-3.27;-2.08;0.1;235.8;21.38;-0.19;-26.25;272.06;-1.57;1.64;5.0;40.493;;;;NaN;;;;0 / 0;3331;2022-11-17 14:19:08:241
-0.3584;0.1832;9.8325;-0.2791;0.2517;9.7994;-0.1229;-0.085;-0.1398;-3.27;-2.08;0.1;235.8;21.38;-0.19;-26.25;272.06;-1.57;1.64;5.0;40.493;;;;NaN;;;;0 / 0;3342;2022-11-17 14:19:08:252
-0.3584;0.1832;9.8325;-0.2791;0.2517;9.7994;-0.1229;-0.085;-0.1398;-3.27;-2.08;0.1;235.8;21.38;-0.19;-26.25;272.06;-1.57;1.64;5.0;40.493;;;;NaN;;;;0 / 0;3351;2022-11-17 14:19:08:261
-0.3584;0.1832;9.8325;-0.2791;0.2517;9.7994;-0.1229;-0.085;-0.1398;-3.27;-2.08;0.1;235.8;21.38;-0.19;-26.25;272.06;-1.57;1.64;5.0;40.493;;;;NaN;;;;0 / 0;3362;2022-11-17 14:19:08:272
-0.3584;0.1832;9.8325;-0.2791;0.2517;9.7994;-0.0472;-0.0267;-0.1019;-3.27;-2.08;0.1;235.8;21.38;-0.19;-26.25;272.06;-1.57;1.64;5.0;40.493;;;;NaN;;;;0 / 0;3371;2022-11-17 14:19:08:281
-0.3584;0.1832;9.8325;-0.2568;0.2229;9.8007;-0.0472;-0.0267;-0.1019;-3.27;-2.08;0.1;235.8;21.38;-0.19;-26.25;272.06;-1.57;1.64;5.0;40.493;;;;NaN;;;;0 / 0;3382;2022-11-17 14:19:08:292
-0.3584;0.1832;9.8325;-0.2568;0.2229;9.8007;-0.0472;-0.0267;-0.1019;-3.27;-2.08;0.1;235.8;21.69;-0.56;-25.69;268.94;-1.3;1.5;5.0;40.493;;;;NaN;;;;0 / 0;3391;2022-11-17 14:19:08:301
-0.3584;0.1832;9.8325;-0.2568;0.2229;9.8007;-0.0472;-0.0267;-0.1019;-3.27;-2.08;0.1;235.8;21.69;-0.56;-25.69;268.94;-1.3;1.5;5.0;40.493;;;;NaN;;;;0 / 0;3401;2022-11-17 14:19:08:311
-0.3584;0.1832;9.8325;-0.2568;0.2229;9.8007;-0.0472;-0.0267;-0.1019;-3.27;-2.08;0.1;235.8;21.69;-0.56;-25.69;268.94;-1.3;1.5;5.0;40.493;;;;NaN;;;;0 / 0;3412;2022-11-17 14:19:08:322
-0.3584;0.1832;9.8325;-0.2568;0.2229;9.8007;-0.0472;-0.0267;-0.1019;-3.27;-2.08;0.1;235.8;21.69;-0.56;-25.69;268.94;-1.3;1.5;5.0;40.493;;;;NaN;;;;0 / 0;3421;2022-11-17 14:19:08:331
-0.3584;0.1832;9.8325;-0.2568;0.2229;9.8007;-0.0472;-0.0267;-0.1019;-3.27;-2.08;0.1;235.8;21.69;-0.56;-25.69;268.94;-1.3;1.5;5.0;40.493;;;;NaN;;;;0 / 0;3431;2022-11-17 14:19:08:341
-0.3584;0.1832;9.8325;-0.2568;0.2229;9.8007;-0.0472;-0.0267;-0.1019;-3.27;-2.08;0.1;235.8;21.69;-0.56;-25.69;268.94;-1.3;1.5;5.0;40.493;;;;NaN;;;;0 / 0;3442;2022-11-17 14:19:08:352
-0.332;0.0966;9.8151;-0.2568;0.2229;9.8007;-0.0472;-0.0267;-0.1019;-0.22;1.15;-0.29;235.8;21.69;-0.56;-25.69;268.94;-1.3;1.5;5.0;40.493;;;;NaN;;;;0 / 0;3451;2022-11-17 14:19:08:361
-0.332;0.0966;9.8151;-0.2568;0.2229;9.8007;-0.0472;-0.0267;-0.1019;-0.22;1.15;-0.29;235.8;21.69;-0.56;-25.69;268.94;-1.3;1.5;5.0;40.493;;;;NaN;;;;0 / 0;3462;2022-11-17 14:19:08:372
-0.332;0.0966;9.8151;-0.2497;0.219;9.801;-0.064;-0.1308;-0.063;-0.22;1.15;-0.29;235.8;21.69;-0.56;-25.69;268.94;-1.3;1.5;5.0;40.493;;;;NaN;;;;0 / 0;3472;2022-11-17 14:19:08:382
-0.332;0.0966;9.8151;-0.2497;0.219;9.801;-0.064;-0.1308;-0.063;-0.22;1.15;-0.29;235.8;21.69;-0.56;-25.69;268.94;-1.3;1.5;5.0;40.493;;;;NaN;;;;0 / 0;3482;2022-11-17 14:19:08:392
-0.332;0.0966;9.8151;-0.2497;0.219;9.801;-0.064;-0.1308;-0.063;-0.22;1.15;-0.29;235.8;21.69;-0.56;-25.69;268.94;-1.3;1.5;5.0;40.493;;;;NaN;;;;0 / 0;3492;2022-11-17 14:19:08:402
-0.332;0.0966;9.8151;-0.2497;0.219;9.801;-0.064;-0.1308;-0.063;-0.22;1.15;-0.29;235.8;21.69;-0.56;-25.69;268.94;-1.3;1.5;5.0;40.493;;;;NaN;;;;0 / 0;3501;2022-11-17 14:19:08:411
-0.332;0.0966;9.8151;-0.2497;0.219;9.801;-0.064;-0.1308;-0.063;-0.22;1.15;-0.29;235.8;21.5;-0.25;-26.0;271.59;-1.28;1.46;5.0;40.493;;;;NaN;;;;0 / 0;3511;2022-11-17 14:19:08:421
-0.332;0.0966;9.8151;-0.2497;0.219;9.801;-0.064;-0.1308;-0.063;-0.22;1.15;-0.29;235.8;21.5;-0.25;-26.0;271.59;-1.28;1.46;5.0;40.493;;;;NaN;;;;0 / 0;3521;2022-11-17 14:19:08:431
-0.332;0.0966;9.8151;-0.2497;0.219;9.801;-0.064;-0.1308;-0.063;-0.22;1.15;-0.29;235.8;21.5;-0.25;-26.0;271.59;-1.28;1.46;5.0;40.493;;;;NaN;;;;0 / 0;3532;2022-11-17 14:19:08:442
-0.332;0.0966;9.8151;-0.2497;0.219;9.801;-0.064;-0.1308;-0.063;-0.22;1.15;-0.29;235.8;21.5;-0.25;-26.0;271.59;-1.28;1.46;5.0;40.493;;;;NaN;;;;0 / 0;3542;2022-11-17 14:19:08:452
-0.332;0.0966;9.8151;-0.2497;0.219;9.801;-0.064;-0.1308;-0.063;-0.22;1.15;-0.29;235.8;21.5;-0.25;-26.0;271.59;-1.28;1.46;5.0;40.493;;;;NaN;;;;0 / 0;3552;2022-11-17 14:19:08:462
-0.332;0.0966;9.8151;-0.2497;0.219;9.801;-0.064;-0.1308;-0.063;-0.22;1.15;-0.29;235.8;21.5;-0.25;-26.0;271.59;-1.28;1.46;5.0;40.493;;;;NaN;;;;0 / 0;3562;2022-11-17 14:19:08:472
-0.332;0.0966;9.8151;-0.2505;0.2144;9.8011;-0.1319;-0.0968;-0.063;-0.22;1.15;-0.29;235.8;21.5;-0.25;-26.0;271.59;-1.28;1.46;5.0;40.493;;;;NaN;;;;0 / 0;3571;2022-11-17 14:19:08:481
-0.3954;0.0974;9.7948;-0.2505;0.2144;9.8011;-0.1319;-0.0968;-0.063;-1.83;0.48;-0.32;235.8;21.5;-0.25;-26.0;271.59;-1.28;1.46;5.0;40.493;;;;NaN;;;;0 / 0;3581;2022-11-17 14:19:08:491
-0.3954;0.0974;9.7948;-0.2505;0.2144;9.8011;-0.1319;-0.0968;-0.063;-1.83;0.48;-0.32;235.8;21.5;-0.25;-26.0;271.59;-1.28;1.46;5.0;40.493;;;;NaN;;;;0 / 0;3591;2022-11-17 14:19:08:501
-0.3954;0.0974;9.7948;-0.2505;0.2144;9.8011;-0.1319;-0.0968;-0.063;-1.83;0.48;-0.32;235.8;21.5;-0.25;-26.0;271.59;-1.28;1.46;5.0;40.493;;;;NaN;;;;0 / 0;3601;2022-11-17 14:19:08:511
-0.3954;0.0974;9.7948;-0.2505;0.2144;9.8011;-0.1319;-0.0968;-0.063;-1.83;0.48;-0.32;235.8;21.5;-0.25;-26.0;271.59;-1.28;1.46;5.0;40.493;;;;NaN;;;;0 / 0;3612;2022-11-17 14:19:08:522
-0.3954;0.0974;9.7948;-0.2505;0.2144;9.8011;-0.1319;-0.0968;-0.063;-1.83;0.48;-0.32;235.8;21.5;-0.25;-26.0;271.59;-1.28;1.46;5.0;41.355;;;;NaN;;;;0 / 0;3622;2022-11-17 14:19:08:532
-0.3954;0.0974;9.7948;-0.2505;0.2144;9.8011;-0.1319;-0.0968;-0.063;-1.83;0.48;-0.32;235.8;21.0;0.31;-26.31;271.63;-1.25;1.46;5.0;41.355;;;;NaN;;;;0 / 0;3631;2022-11-17 14:19:08:541
-0.3954;0.0974;9.7948;-0.2505;0.2144;9.8011;-0.1319;-0.0968;-0.063;-1.83;0.48;-0.32;235.8;21.0;0.31;-26.31;271.63;-1.25;1.46;5.0;41.355;;;;NaN;;;;0 / 0;3642;2022-11-17 14:19:08:552
-0.3954;0.0974;9.7948;-0.2505;0.2144;9.8011;-0.1319;-0.0968;-0.063;-1.83;0.48;-0.32;235.8;21.0;0.31;-26.31;271.63;-1.25;1.46;5.0;41.355;;;;NaN;;;;0 / 0;3652;2022-11-17 14:19:08:562
-0.3954;0.0974;9.7948;-0.2505;0.2144;9.8011;-0.1319;-0.0968;-0.063;-1.83;0.48;-0.32;235.8;21.0;0.31;-26.31;271.63;-1.25;1.46;5.0;41.355;;;;NaN;;;;0 / 0;3662;2022-11-17 14:19:08:572
-0.3424;0.1443;9.6266;-0.2481;0.2113;9.8012;-0.0852;-0.074;-0.1809;-1.83;0.48;-0.32;235.8;21.0;0.31;-26.31;271.63;-1.25;1.46;5.0;41.355;;;;NaN;;;;0 / 0;3671;2022-11-17 14:19:08:581
-0.3424;0.1443;9.6266;-0.2481;0.2113;9.8012;-0.0852;-0.074;-0.1809;-1.83;0.48;-0.32;235.8;21.0;0.31;-26.31;271.63;-1.25;1.46;5.0;41.355;;;;NaN;;;;0 / 0;3682;2022-11-17 14:19:08:592
-0.3424;0.1443;9.6266;-0.2481;0.2113;9.8012;-0.0852;-0.074;-0.1809;-1.83;0.48;-0.32;235.8;21.0;0.31;-26.31;271.63;-1.25;1.46;5.0;41.355;;;;NaN;;;;0 / 0;3691;2022-11-17 14:19:08:601
-0.3424;0.1443;9.6266;-0.2481;0.2113;9.8012;-0.0852;-0.074;-0.1809;-1.83;0.48;-0.32;235.8;21.0;0.31;-26.31;271.63;-1.25;1.46;5.0;41.355;;;;NaN;;;;0 / 0;3701;2022-11-17 14:19:08:611
-0.3424;0.1443;9.6266;-0.2481;0.2113;9.8012;-0.0852;-0.074;-0.1809;-1.53;0.63;-0.17;235.3;21.0;0.31;-26.31;271.63;-1.25;1.46;5.0;41.355;;;;NaN;;;;0 / 0;3713;2022-11-17 14:19:08:623
-0.3424;0.1443;9.6266;-0.2481;0.2113;9.8012;-0.0852;-0.074;-0.1809;-1.53;0.63;-0.17;235.3;21.0;0.31;-26.31;271.63;-1.25;1.46;5.0;41.355;;;;NaN;;;;0 / 0;3721;2022-11-17 14:19:08:631
-0.3424;0.1443;9.6266;-0.2481;0.2113;9.8012;-0.0852;-0.074;-0.1809;-1.53;0.63;-0.17;235.3;21.0;0.31;-26.31;271.63;-1.25;1.46;5.0;41.355;;;;NaN;;;;0 / 0;3731;2022-11-17 14:19:08:641
-0.3424;0.1443;9.6266;-0.2481;0.2113;9.8012;-0.0852;-0.074;-0.1809;-1.53;0.63;-0.17;235.3;21.0;0.31;-26.31;271.63;-1.25;1.46;5.0;41.355;;;;NaN;;;;0 / 0;3742;2022-11-17 14:19:08:652
-0.3424;0.1443;9.6266;-0.2481;0.2113;9.8012;-0.0852;-0.074;-0.1809;-1.53;0.63;-0.17;235.3;21.06;0.06;-26.19;271.61;-1.23;1.45;5.0;41.355;;;;NaN;;;;0 / 0;3752;2022-11-17 14:19:08:662
-0.3424;0.1443;9.6266;-0.2481;0.2113;9.8012;-0.0852;-0.074;-0.1809;-1.53;0.63;-0.17;235.3;21.06;0.06;-26.19;271.61;-1.23;1.45;5.0;41.355;;;;NaN;;;;0 / 0;3762;2022-11-17 14:19:08:672
-0.3103;0.0855;9.5394;-0.243;0.2092;9.8014;-0.0609;-0.1406;-0.2693;-1.53;0.63;-0.17;235.3;21.06;0.06;-26.19;271.61;-1.23;1.45;5.0;41.355;;;;NaN;;;;0 / 0;3771;2022-11-17 14:19:08:681
-0.3103;0.0855;9.5394;-0.243;0.2092;9.8014;-0.0609;-0.1406;-0.2693;-1.53;0.63;-0.17;235.3;21.06;0.06;-26.19;271.61;-1.23;1.45;5.0;41.355;;;;NaN;;;;0 / 0;3782;2022-11-17 14:19:08:692
-0.3103;0.0855;9.5394;-0.243;0.2092;9.8014;-0.0609;-0.1406;-0.2693;-1.53;0.63;-0.17;235.3;21.06;0.06;-26.19;271.61;-1.23;1.45;5.0;41.355;;;;NaN;;;;0 / 0;3792;2022-11-17 14:19:08:702
-0.3103;0.0855;9.5394;-0.243;0.2092;9.8014;-0.0609;-0.1406;-0.2693;-1.53;0.63;-0.17;235.3;21.06;0.06;-26.19;271.61;-1.23;1.45;5.0;41.355;;;;NaN;;;;0 / 0;3802;2022-11-17 14:19:08:712
-0.3103;0.0855;9.5394;-0.243;0.2092;9.8014;-0.0609;-0.1406;-0.2693;-1.53;0.63;-0.17;235.3;21.06;0.06;-26.19;271.61;-1.23;1.45;5.0;41.355;;;;NaN;;;;0 / 0;3812;2022-11-17 14:19:08:722
-0.3103;0.0855;9.5394;-0.243;0.2092;9.8014;-0.0609;-0.1406;-0.2693;-1.53;0.63;-0.17;235.3;21.06;0.06;-26.19;271.61;-1.23;1.45;5.0;41.355;;;;NaN;;;;0 / 0;3821;2022-11-17 14:19:08:731
-0.3103;0.0855;9.5394;-0.243;0.2092;9.8014;-0.0609;-0.1406;-0.2693;-1.53;0.63;-0.17;235.3;21.06;0.06;-26.19;271.61;-1.23;1.45;5.0;41.355;;;;NaN;;;;0 / 0;3832;2022-11-17 14:19:08:742
-0.3103;0.0855;9.5394;-0.243;0.2092;9.8014;-0.0609;-0.1406;-0.2693;1.06;0.78;-1.18;235.3;21.06;0.06;-26.19;271.61;-1.23;1.45;5.0;41.355;;;;NaN;;;;0 / 0;3842;2022-11-17 14:19:08:752
-0.3103;0.0855;9.5394;-0.243;0.2092;9.8014;-0.0609;-0.1406;-0.2693;1.06;0.78;-1.18;235.3;21.06;0.06;-26.19;271.61;-1.23;1.45;5.0;41.355;;;;NaN;;;;0 / 0;3851;2022-11-17 14:19:08:761
-0.3103;0.0855;9.5394;-0.243;0.2092;9.8014;-0.0609;-0.1406;-0.2693;1.06;0.78;-1.18;235.3;21.06;0.06;-26.19;271.61;-1.23;1.45;5.0;41.355;;;;NaN;;;;0 / 0;3862;2022-11-17 14:19:08:772
-0.3414;0.1635;9.6661;-0.2552;0.2071;9.8011;-0.0781;-0.0502;-0.1415;1.06;0.78;-1.18;235.3;21.38;0.0;-26.06;271.59;-1.22;1.42;5.0;41.355;;;;NaN;;;;0 / 0;3872;2022-11-17 14:19:08:782
-0.3414;0.1635;9.6661;-0.2552;0.2071;9.8011;-0.0781;-0.0502;-0.1415;1.06;0.78;-1.18;235.3;21.38;0.0;-26.06;271.59;-1.22;1.42;5.0;41.355;;;;NaN;;;;0 / 0;3882;2022-11-17 14:19:08:792
-0.3414;0.1635;9.6661;-0.2552;0.2071;9.8011;-0.0781;-0.0502;-0.1415;1.06;0.78;-1.18;235.3;21.38;0.0;-26.06;271.59;-1.22;1.42;5.0;41.355;;;;NaN;;;;0 / 0;3891;2022-11-17 14:19:08:801
-0.3414;0.1635;9.6661;-0.2552;0.2071;9.8011;-0.0781;-0.0502;-0.1415;1.06;0.78;-1.18;235.3;21.38;0.0;-26.06;271.59;-1.22;1.42;5.0;41.355;;;;NaN;;;;0 / 0;3902;2022-11-17 14:19:08:812
-0.3414;0.1635;9.6661;-0.2552;0.2071;9.8011;-0.0781;-0.0502;-0.1415;1.06;0.78;-1.18;235.3;21.38;0.0;-26.06;271.59;-1.22;1.42;5.0;41.355;;;;NaN;;;;0 / 0;3912;2022-11-17 14:19:08:822
-0.3414;0.1635;9.6661;-0.2552;0.2071;9.8011;-0.0781;-0.0502;-0.1415;1.06;0.78;-1.18;235.3;21.38;0.0;-26.06;271.59;-1.22;1.42;5.0;41.355;;;;NaN;;;;0 / 0;3921;2022-11-17 14:19:08:831
-0.3414;0.1635;9.6661;-0.2552;0.2071;9.8011;-0.0781;-0.0502;-0.1415;1.06;0.78;-1.18;235.3;21.38;0.0;-26.06;271.59;-1.22;1.42;5.0;41.355;;;;NaN;;;;0 / 0;3932;2022-11-17 14:19:08:842
-0.3414;0.1635;9.6661;-0.2552;0.2071;9.8011;-0.0781;-0.0502;-0.1415;1.06;0.78;-1.18;235.3;21.38;0.0;-26.06;271.59;-1.22;1.42;5.0;41.355;;;;NaN;;;;0 / 0;3941;2022-11-17 14:19:08:851
-0.3414;0.1635;9.6661;-0.2552;0.2071;9.8011;-0.0781;-0.0502;-0.1415;1.06;0.78;-1.18;235.3;21.38;0.0;-26.06;271.59;-1.22;1.42;5.0;41.355;;;;NaN;;;;0 / 0;3951;2022-11-17 14:19:08:861
-0.3414;0.1635;9.6661;-0.2552;0.2071;9.8011;-0.0781;-0.0502;-0.1415;1.06;0.78;-1.18;235.3;21.38;0.0;-26.06;271.59;-1.22;1.42;5.0;42.114;;;;NaN;;;;0 / 0;3961;2022-11-17 14:19:08:871
-0.3119;0.0943;9.807;-0.2322;0.1933;9.8019;-0.0717;-0.1148;0.0046;1.06;0.78;-1.18;235.3;21.38;0.0;-26.06;271.59;-1.22;1.42;5.0;42.114;;;;NaN;;;;0 / 0;3971;2022-11-17 14:19:08:881
-0.3119;0.0943;9.807;-0.2322;0.1933;9.8019;-0.0717;-0.1148;0.0046;-0.92;1.42;-1.15;235.3;21.38;0.0;-26.06;271.59;-1.22;1.42;5.0;42.114;;;;NaN;;;;0 / 0;3982;2022-11-17 14:19:08:892
-0.3119;0.0943;9.807;-0.2322;0.1933;9.8019;-0.0717;-0.1148;0.0046;-0.92;1.42;-1.15;235.3;21.0;-0.19;-25.94;271.47;-1.13;1.36;5.0;42.114;;;;NaN;;;;0 / 0;3992;2022-11-17 14:19:08:902
-0.3119;0.0943;9.807;-0.2322;0.1933;9.8019;-0.0717;-0.1148;0.0046;-0.92;1.42;-1.15;235.3;21.0;-0.19;-25.94;271.47;-1.13;1.36;5.0;42.114;;;;NaN;;;;0 / 0;4001;2022-11-17 14:19:08:911
-0.3119;0.0943;9.807;-0.2322;0.1933;9.8019;-0.0717;-0.1148;0.0046;-0.92;1.42;-1.15;235.3;21.0;-0.19;-25.94;271.47;-1.13;1.36;5.0;42.114;;;;NaN;;;;0 / 0;4012;2022-11-17 14:19:08:922
-0.3119;0.0943;9.807;-0.2322;0.1933;9.8019;-0.0717;-0.1148;0.0046;-0.92;1.42;-1.15;235.3;21.0;-0.19;-25.94;271.47;-1.13;1.36;5.0;42.114;;;;NaN;;;;0 / 0;4022;2022-11-17 14:19:08:932
-0.3119;0.0943;9.807;-0.2322;0.1933;9.8019;-0.0717;-0.1148;0.0046;-0.92;1.42;-1.15;235.3;21.0;-0.19;-25.94;271.47;-1.13;1.36;5.0;42.114;;;;NaN;;;;0 / 0;4031;2022-11-17 14:19:08:941
-0.3119;0.0943;9.807;-0.2322;0.1933;9.8019;-0.0717;-0.1148;0.0046;-0.92;1.42;-1.15;235.3;21.0;-0.19;-25.94;271.47;-1.13;1.36;5.0;42.114;;;;NaN;;;;0 / 0;4042;2022-11-17 14:19:08:952
-0.3119;0.0943;9.807;-0.2322;0.1933;9.8019;-0.0717;-0.1148;0.0046;-0.92;1.42;-1.15;235.3;21.0;-0.19;-25.94;271.47;-1.13;1.36;5.0;42.114;;;;NaN;;;;0 / 0;4052;2022-11-17 14:19:08:962
-0.3119;0.0943;9.807;-0.2322;0.1933;9.8019;-0.0717;-0.1148;0.0046;-0.92;1.42;-1.15;235.3;21.0;-0.19;-25.94;271.47;-1.13;1.36;5.0;42.114;;;;NaN;;;;0 / 0;4061;2022-11-17 14:19:08:971
-0.3462;0.0979;9.7752;-0.2425;0.1926;9.8017;-0.1006;-0.1044;-0.0343;-0.92;1.42;-1.15;235.3;21.0;-0.19;-25.94;271.47;-1.13;1.36;5.0;42.114;;;;NaN;;;;0 / 0;4072;2022-11-17 14:19:08:982
-0.3462;0.0979;9.7752;-0.2425;0.1926;9.8017;-0.1006;-0.1044;-0.0343;-0.92;1.42;-1.15;235.3;21.0;-0.19;-25.94;271.47;-1.13;1.36;5.0;42.114;;;;NaN;;;;0 / 0;4081;2022-11-17 14:19:08:991
-0.3462;0.0979;9.7752;-0.2425;0.1926;9.8017;-0.1006;-0.1044;-0.0343;-0.92;1.42;-1.15;235.3;21.0;-0.19;-25.94;271.47;-1.13;1.36;5.0;42.114;;;;NaN;;;;0 / 0;4091;2022-11-17 14:19:09:001
-0.3462;0.0979;9.7752;-0.2425;0.1926;9.8017;-0.1006;-0.1044;-0.0343;-0.92;1.42;-1.15;235.3;21.0;-0.19;-25.94;271.47;-1.13;1.36;5.0;42.114;;;;NaN;;;;0 / 0;4102;2022-11-17 14:19:09:012
-0.3462;0.0979;9.7752;-0.2425;0.1926;9.8017;-0.1006;-0.1044;-0.0343;-1.35;-1.17;0.84;235.3;21.0;0.5;-25.75;274.27;-1.13;1.42;5.0;42.114;;;;NaN;;;;0 / 0;4112;2022-11-17 14:19:09:022
-0.3462;0.0979;9.7752;-0.2425;0.1926;9.8017;-0.1006;-0.1044;-0.0343;-1.35;-1.17;0.84;235.3;21.0;0.5;-25.75;274.27;-1.13;1.42;5.0;42.114;;;;NaN;;;;0 / 0;4122;2022-11-17 14:19:09:032
-0.3462;0.0979;9.7752;-0.2425;0.1926;9.8017;-0.1006;-0.1044;-0.0343;-1.35;-1.17;0.84;235.3;21.0;0.5;-25.75;274.27;-1.13;1.42;5.0;42.114;;;;NaN;;;;0 / 0;4131;2022-11-17 14:19:09:041
-0.3462;0.0979;9.7752;-0.2425;0.1926;9.8017;-0.1006;-0.1044;-0.0343;-1.35;-1.17;0.84;235.3;21.0;0.5;-25.75;274.27;-1.13;1.42;5.0;42.114;;;;NaN;;;;0 / 0;4142;2022-11-17 14:19:09:052
-0.3462;0.0979;9.7752;-0.2425;0.1926;9.8017;-0.1006;-0.1044;-0.0343;-1.35;-1.17;0.84;235.3;21.0;0.5;-25.75;274.27;-1.13;1.42;5.0;42.114;;;;NaN;;;;0 / 0;4152;2022-11-17 14:19:09:062
-0.3462;0.0979;9.7752;-0.2425;0.1926;9.8017;-0.1006;-0.1044;-0.0343;-1.35;-1.17;0.84;235.3;21.0;0.5;-25.75;274.27;-1.13;1.42;5.0;42.114;;;;NaN;;;;0 / 0;4162;2022-11-17 14:19:09:072
-0.2553;0.0886;9.8682;-0.2302;0.1659;9.8025;-0.0149;-0.0874;0.0531;-1.35;-1.17;0.84;235.3;21.0;0.5;-25.75;274.27;-1.13;1.42;5.0;42.114;;;;NaN;;;;0 / 0;4172;2022-11-17 14:19:09:082
-0.2553;0.0886;9.8682;-0.2302;0.1659;9.8025;-0.0149;-0.0874;0.0531;-1.35;-1.17;0.84;235.3;21.0;0.5;-25.75;274.27;-1.13;1.42;5.0;42.114;;;;NaN;;;;0 / 0;4182;2022-11-17 14:19:09:092
-0.2553;0.0886;9.8682;-0.2302;0.1659;9.8025;-0.0149;-0.0874;0.0531;-1.35;-1.17;0.84;235.3;21.0;0.5;-25.75;274.27;-1.13;1.42;5.0;42.114;;;;NaN;;;;0 / 0;4192;2022-11-17 14:19:09:102
-0.2553;0.0886;9.8682;-0.2302;0.1659;9.8025;-0.0149;-0.0874;0.0531;-1.35;-1.17;0.84;235.3;21.0;0.5;-25.75;274.27;-1.13;1.42;5.0;42.114;;;;NaN;;;;0 / 0;4202;2022-11-17 14:19:09:112
-0.2553;0.0886;9.8682;-0.2302;0.1659;9.8025;-0.0149;-0.0874;0.0531;-1.35;-1.17;0.84;235.3;21.0;0.5;-25.75;274.27;-1.13;1.42;5.0;42.114;;;;NaN;;;;0 / 0;4212;2022-11-17 14:19:09:122
-0.2553;0.0886;9.8682;-0.2302;0.1659;9.8025;-0.0149;-0.0874;0.0531;-1.35;-1.17;0.84;235.3;21.0;0.5;-25.75;274.27;-1.13;1.42;5.0;42.114;;;;NaN;;;;0 / 0;4221;2022-11-17 14:19:09:131
-0.2553;0.0886;9.8682;-0.2302;0.1659;9.8025;-0.0149;-0.0874;0.0531;-1.35;-1.17;0.84;235.3;21.31;0.06;-26.19;271.26;-0.97;1.35;5.0;42.114;;;;NaN;;;;0 / 0;4232;2022-11-17 14:19:09:142
-0.2553;0.0886;9.8682;-0.2302;0.1659;9.8025;-0.0149;-0.0874;0.0531;-1.04;-0.01;0.13;235.3;21.31;0.06;-26.19;271.26;-0.97;1.35;5.0;42.114;;;;NaN;;;;0 / 0;4241;2022-11-17 14:19:09:151
-0.2854;0.0912;9.8762;-0.2302;0.1659;9.8025;-0.0149;-0.0874;0.0531;-1.04;-0.01;0.13;235.3;21.31;0.06;-26.19;271.26;-0.97;1.35;5.0;42.114;;;;NaN;;;;0 / 0;4252;2022-11-17 14:19:09:162
-0.2854;0.0912;9.8762;-0.2302;0.1659;9.8025;-0.0149;-0.0874;0.0531;-1.04;-0.01;0.13;235.3;21.31;0.06;-26.19;271.26;-0.97;1.35;5.0;42.114;;;;NaN;;;;0 / 0;4261;2022-11-17 14:19:09:171
-0.2854;0.0912;9.8762;-0.2261;0.1752;9.8024;-0.019;-0.087;-0.0154;-1.04;-0.01;0.13;235.3;21.31;0.06;-26.19;271.26;-0.97;1.35;5.0;42.114;;;;NaN;;;;0 / 0;4271;2022-11-17 14:19:09:181
-0.2854;0.0912;9.8762;-0.2261;0.1752;9.8024;-0.019;-0.087;-0.0154;-1.04;-0.01;0.13;235.3;21.31;0.06;-26.19;271.26;-0.97;1.35;5.0;42.114;;;;NaN;;;;0 / 0;4282;2022-11-17 14:19:09:192
-0.2854;0.0912;9.8762;-0.2261;0.1752;9.8024;-0.019;-0.087;-0.0154;-1.04;-0.01;0.13;235.3;21.31;0.06;-26.19;271.26;-0.97;1.35;5.0;40.377;;;;NaN;;;;0 / 0;4292;2022-11-17 14:19:09:202
-0.2854;0.0912;9.8762;-0.2261;0.1752;9.8024;-0.019;-0.087;-0.0154;-1.04;-0.01;0.13;235.3;21.31;0.06;-26.19;271.26;-0.97;1.35;5.0;40.377;;;;NaN;;;;0 / 0;4301;2022-11-17 14:19:09:211
-0.2854;0.0912;9.8762;-0.2261;0.1752;9.8024;-0.019;-0.087;-0.0154;-1.04;-0.01;0.13;235.3;21.31;0.06;-26.19;271.26;-0.97;1.35;5.0;40.377;;;;NaN;;;;0 / 0;4311;2022-11-17 14:19:09:221
-0.2854;0.0912;9.8762;-0.2261;0.1752;9.8024;-0.019;-0.087;-0.0154;-1.04;-0.01;0.13;235.3;21.31;0.06;-26.19;271.26;-0.97;1.35;5.0;40.377;;;;NaN;;;;0 / 0;4321;2022-11-17 14:19:09:231
-0.2854;0.0912;9.8762;-0.2261;0.1752;9.8024;-0.019;-0.087;-0.0154;-1.04;-0.01;0.13;235.3;21.31;0.06;-26.19;271.26;-0.97;1.35;5.0;40.377;;;;NaN;;;;0 / 0;4331;2022-11-17 14:19:09:241
-0.2854;0.0912;9.8762;-0.2261;0.1752;9.8024;-0.019;-0.087;-0.0154;-1.04;-0.01;0.13;235.3;21.31;0.06;-26.19;271.26;-0.97;1.35;5.0;40.377;;;;NaN;;;;0 / 0;4342;2022-11-17 14:19:09:252
-0.2792;0.1291;9.7867;-0.2261;0.1752;9.8024;-0.019;-0.087;-0.0154;-1.04;-0.01;0.13;235.3;21.06;0.0;-25.81;271.33;-1.02;1.32;5.0;40.377;;;;NaN;;;;0 / 0;4351;2022-11-17 14:19:09:261
-0.2792;0.1291;9.7867;-0.2261;0.1752;9.8024;-0.019;-0.087;-0.0154;-1.04;-0.01;0.13;235.3;21.06;0.0;-25.81;271.33;-1.02;1.32;5.0;40.377;;;;NaN;;;;0 / 0;4362;2022-11-17 14:19:09:272
-0.2792;0.1291;9.7867;-0.2261;0.1752;9.8024;-0.019;-0.087;-0.0154;-0.01;0.63;0.44;235.3;21.06;0.0;-25.81;271.33;-1.02;1.32;5.0;40.377;;;;NaN;;;;0 / 0;4371;2022-11-17 14:19:09:281
-0.2792;0.1291;9.7867;-0.213;0.165;9.8029;-0.0909;-0.1258;-0.0551;-0.01;0.63;0.44;235.3;21.06;0.0;-25.81;271.33;-1.02;1.32;5.0;40.377;;;;NaN;;;;0 / 0;4381;2022-11-17 14:19:09:291
-0.2792;0.1291;9.7867;-0.213;0.165;9.8029;-0.0909;-0.1258;-0.0551;-0.01;0.63;0.44;235.3;21.06;0.0;-25.81;271.33;-1.02;1.32;5.0;40.377;;;;NaN;;;;0 / 0;4391;2022-11-17 14:19:09:301
-0.2792;0.1291;9.7867;-0.213;0.165;9.8029;-0.0909;-0.1258;-0.0551;-0.01;0.63;0.44;235.3;21.06;0.0;-25.81;271.33;-1.02;1.32;5.0;40.377;;;;NaN;;;;0 / 0;4402;2022-11-17 14:19:09:312
-0.2792;0.1291;9.7867;-0.213;0.165;9.8029;-0.0909;-0.1258;-0.0551;-0.01;0.63;0.44;235.2;21.06;0.0;-25.81;271.33;-1.02;1.32;5.0;40.377;;;;NaN;;;;0 / 0;4411;2022-11-17 14:19:09:321
-0.2792;0.1291;9.7867;-0.213;0.165;9.8029;-0.0909;-0.1258;-0.0551;-0.01;0.63;0.44;235.2;21.06;0.0;-25.81;271.33;-1.02;1.32;5.0;40.377;;;;NaN;;;;0 / 0;4421;2022-11-17 14:19:09:331
-0.3671;0.0644;9.7694;-0.213;0.165;9.8029;-0.0909;-0.1258;-0.0551;-0.01;0.63;0.44;235.2;21.06;0.0;-25.81;271.33;-1.02;1.32;5.0;40.377;;;;NaN;;;;0 / 0;4431;2022-11-17 14:19:09:341
-0.3671;0.0644;9.7694;-0.213;0.165;9.8029;-0.0909;-0.1258;-0.0551;-0.01;0.63;0.44;235.2;21.06;0.0;-25.81;271.33;-1.02;1.32;5.0;40.377;;;;NaN;;;;0 / 0;4442;2022-11-17 14:19:09:352
-0.3671;0.0644;9.7694;-0.213;0.165;9.8029;-0.0909;-0.1258;-0.0551;-0.01;0.63;0.44;235.2;21.06;0.0;-25.81;271.33;-1.02;1.32;5.0;40.377;;;;NaN;;;;0 / 0;4453;2022-11-17 14:19:09:363
-0.3671;0.0644;9.7694;-0.213;0.165;9.8029;-0.0909;-0.1258;-0.0551;-0.01;0.63;0.44;235.2;21.06;0.0;-25.81;271.33;-1.02;1.32;5.0;40.377;;;;NaN;;;;0 / 0;4462;2022-11-17 14:19:09:372
-0.3671;0.0644;9.7694;-0.2301;0.1754;9.8023;-0.0837;-0.0675;-0.0447;-0.01;0.63;0.44;235.2;21.19;-0.37;-26.06;271.25;-0.96;1.24;5.0;40.377;;;;NaN;;;;0 / 0;4472;2022-11-17 14:19:09:382
-0.3671;0.0644;9.7694;-0.2301;0.1754;9.8023;-0.0837;-0.0675;-0.0447;-0.01;0.63;0.44;235.2;21.19;-0.37;-26.06;271.25;-0.96;1.24;5.0;40.377;;;;NaN;;;;0 / 0;4481;2022-11-17 14:19:09:391
-0.3671;0.0644;9.7694;-0.2301;0.1754;9.8023;-0.0837;-0.0675;-0.0447;-0.01;0.63;0.44;235.2;21.19;-0.37;-26.06;271.25;-0.96;1.24;5.0;40.377;;;;NaN;;;;0 / 0;4491;2022-11-17 14:19:09:401
-0.3671;0.0644;9.7694;-0.2301;0.1754;9.8023;-0.0837;-0.0675;-0.0447;-0.01;0.63;0.44;235.2;21.19;-0.37;-26.06;271.25;-0.96;1.24;5.0;40.377;;;;NaN;;;;0 / 0;4501;2022-11-17 14:19:09:411
-0.3671;0.0644;9.7694;-0.2301;0.1754;9.8023;-0.0837;-0.0675;-0.0447;-0.25;0.51;0.47;235.2;21.19;-0.37;-26.06;271.25;-0.96;1.24;5.0;40.377;;;;NaN;;;;0 / 0;4511;2022-11-17 14:19:09:421
-0.3671;0.0644;9.7694;-0.2301;0.1754;9.8023;-0.0837;-0.0675;-0.0447;-0.25;0.51;0.47;235.2;21.19;-0.37;-26.06;271.25;-0.96;1.24;5.0;40.377;;;;NaN;;;;0 / 0;4521;2022-11-17 14:19:09:431
-0.3041;0.1138;9.7204;-0.2301;0.1754;9.8023;-0.0837;-0.0675;-0.0447;-0.25;0.51;0.47;235.2;21.19;-0.37;-26.06;271.25;-0.96;1.24;5.0;40.377;;;;NaN;;;;0 / 0;4531;2022-11-17 14:19:09:441
-0.3041;0.1138;9.7204;-0.2301;0.1754;9.8023;-0.0837;-0.0675;-0.0447;-0.25;0.51;0.47;235.2;21.19;-0.37;-26.06;271.25;-0.96;1.24;5.0;40.377;;;;NaN;;;;0 / 0;4541;2022-11-17 14:19:09:451
-0.3041;0.1138;9.7204;-0.2301;0.1754;9.8023;-0.0837;-0.0675;-0.0447;-0.25;0.51;0.47;235.2;21.19;-0.37;-26.06;271.25;-0.96;1.24;5.0;40.377;;;;NaN;;;;0 / 0;4552;2022-11-17 14:19:09:462
-0.3041;0.1138;9.7204;-0.2301;0.1754;9.8023;-0.0837;-0.0675;-0.0447;-0.25;0.51;0.47;235.2;21.19;-0.37;-26.06;271.25;-0.96;1.24;5.0;40.377;;;;NaN;;;;0 / 0;4562;2022-11-17 14:19:09:472
-0.3041;0.1138;9.7204;-0.2275;0.1667;9.8025;-0.0372;-0.098;-0.0547;-0.25;0.51;0.47;235.2;21.19;-0.37;-26.06;271.25;-0.96;1.24;5.0;40.377;;;;NaN;;;;0 / 0;4571;2022-11-17 14:19:09:481
-0.3041;0.1138;9.7204;-0.2275;0.1667;9.8025;-0.0372;-0.098;-0.0547;-0.25;0.51;0.47;235.2;21.19;-0.37;-26.06;271.25;-0.96;1.24;5.0;40.377;;;;NaN;;;;0 / 0;4581;2022-11-17 14:19:09:491
-0.3041;0.1138;9.7204;-0.2275;0.1667;9.8025;-0.0372;-0.098;-0.0547;-0.25;0.51;0.47;235.2;21.5;-0.56;-25.81;268.53;-0.97;1.33;5.0;40.377;;;;NaN;;;;0 / 0;4591;2022-11-17 14:19:09:501
-0.3041;0.1138;9.7204;-0.2275;0.1667;9.8025;-0.0372;-0.098;-0.0547;-0.25;0.51;0.47;235.2;21.5;-0.56;-25.81;268.53;-0.97;1.33;5.0;41.416;;;;NaN;;;;0 / 0;4602;2022-11-17 14:19:09:512
-0.3041;0.1138;9.7204;-0.2275;0.1667;9.8025;-0.0372;-0.098;-0.0547;-0.25;0.51;0.47;235.2;21.5;-0.56;-25.81;268.53;-0.97;1.33;5.0;41.416;;;;NaN;;;;0 / 0;4612;2022-11-17 14:19:09:522
-0.3041;0.1138;9.7204;-0.2275;0.1667;9.8025;-0.0372;-0.098;-0.0547;-0.25;0.51;0.47;235.2;21.5;-0.56;-25.81;268.53;-0.97;1.33;5.0;41.416;;;;NaN;;;;0 / 0;4622;2022-11-17 14:19:09:532
-0.2279;0.1415;9.8065;-0.2275;0.1667;9.8025;-0.0372;-0.098;-0.0547;-0.25;0.51;0.47;235.2;21.5;-0.56;-25.81;268.53;-0.97;1.33;5.0;41.416;;;;NaN;;;;0 / 0;4631;2022-11-17 14:19:09:541
-0.2279;0.1415;9.8065;-0.2275;0.1667;9.8025;-0.0372;-0.098;-0.0547;-0.49;2.76;-1.21;235.2;21.5;-0.56;-25.81;268.53;-0.97;1.33;5.0;41.416;;;;NaN;;;;0 / 0;4642;2022-11-17 14:19:09:552
-0.2279;0.1415;9.8065;-0.2275;0.1667;9.8025;-0.0372;-0.098;-0.0547;-0.49;2.76;-1.21;235.2;21.5;-0.56;-25.81;268.53;-0.97;1.33;5.0;41.416;;;;NaN;;;;0 / 0;4651;2022-11-17 14:19:09:561
-0.2279;0.1415;9.8065;-0.2275;0.1667;9.8025;-0.0372;-0.098;-0.0547;-0.49;2.76;-1.21;235.2;21.5;-0.56;-25.81;268.53;-0.97;1.33;5.0;41.416;;;;NaN;;;;0 / 0;4662;2022-11-17 14:19:09:572
-0.2279;0.1415;9.8065;-0.2331;0.1632;9.8025;-0.0806;-0.1436;-0.0645;-0.49;2.76;-1.21;235.2;21.5;-0.56;-25.81;268.53;-0.97;1.33;5.0;41.416;;;;NaN;;;;0 / 0;4672;2022-11-17 14:19:09:582
-0.2279;0.1415;9.8065;-0.2331;0.1632;9.8025;-0.0806;-0.1436;-0.0645;-0.49;2.76;-1.21;235.2;21.5;-0.56;-25.81;268.53;-0.97;1.33;5.0;41.416;;;;NaN;;;;0 / 0;4681;2022-11-17 14:19:09:591
-0.2279;0.1415;9.8065;-0.2331;0.1632;9.8025;-0.0806;-0.1436;-0.0645;-0.49;2.76;-1.21;235.2;21.5;-0.56;-25.81;268.53;-0.97;1.33;5.0;41.416;;;;NaN;;;;0 / 0;4691;2022-11-17 14:19:09:601
-0.2279;0.1415;9.8065;-0.2331;0.1632;9.8025;-0.0806;-0.1436;-0.0645;-0.49;2.76;-1.21;235.2;21.5;-0.56;-25.81;268.53;-0.97;1.33;5.0;41.416;;;;NaN;;;;0 / 0;4701;2022-11-17 14:19:09:611
-0.2279;0.1415;9.8065;-0.2331;0.1632;9.8025;-0.0806;-0.1436;-0.0645;-0.49;2.76;-1.21;235.2;21.63;-0.19;-26.31;271.18;-0.95;1.36;5.0;41.416;;;;NaN;;;;0 / 0;4711;2022-11-17 14:19:09:621
-0.2279;0.1415;9.8065;-0.2331;0.1632;9.8025;-0.0806;-0.1436;-0.0645;-0.49;2.76;-1.21;235.2;21.63;-0.19;-26.31;271.18;-0.95;1.36;5.0;41.416;;;;NaN;;;;0 / 0;4722;2022-11-17 14:19:09:632
-0.2505;0.1586;9.8831;-0.2331;0.1632;9.8025;-0.0806;-0.1436;-0.0645;-0.49;2.76;-1.21;235.2;21.63;-0.19;-26.31;271.18;-0.95;1.36;5.0;41.416;;;;NaN;;;;0 / 0;4732;2022-11-17 14:19:09:642
-0.2505;0.1586;9.8831;-0.2331;0.1632;9.8025;-0.0806;-0.1436;-0.0645;-0.49;2.76;-1.21;235.2;21.63;-0.19;-26.31;271.18;-0.95;1.36;5.0;41.416;;;;NaN;;;;0 / 0;4741;2022-11-17 14:19:09:651
-0.2505;0.1586;9.8831;-0.2331;0.1632;9.8025;-0.0806;-0.1436;-0.0645;-0.49;2.76;-1.21;235.2;21.63;-0.19;-26.31;271.18;-0.95;1.36;5.0;41.416;;;;NaN;;;;0 / 0;4752;2022-11-17 14:19:09:662
-0.2505;0.1586;9.8831;-0.2331;0.1632;9.8025;-0.0806;-0.1436;-0.0645;-0.49;2.76;-1.21;236.2;21.63;-0.19;-26.31;271.18;-0.95;1.36;5.0;41.416;;;;NaN;;;;0 / 0;4762;2022-11-17 14:19:09:672
-0.2505;0.1586;9.8831;-0.226;0.137;9.803;-0.0877;-0.0585;0.0525;1.06;-1.78;-0.11;236.2;21.63;-0.19;-26.31;271.18;-0.95;1.36;5.0;41.416;;;;NaN;;;;0 / 0;4771;2022-11-17 14:19:09:681
-0.2505;0.1586;9.8831;-0.226;0.137;9.803;-0.0877;-0.0585;0.0525;1.06;-1.78;-0.11;236.2;21.63;-0.19;-26.31;271.18;-0.95;1.36;5.0;41.416;;;;NaN;;;;0 / 0;4781;2022-11-17 14:19:09:691
-0.2505;0.1586;9.8831;-0.226;0.137;9.803;-0.0877;-0.0585;0.0525;1.06;-1.78;-0.11;236.2;21.63;-0.19;-26.31;271.18;-0.95;1.36;5.0;41.416;;;;NaN;;;;0 / 0;4791;2022-11-17 14:19:09:701
-0.2505;0.1586;9.8831;-0.226;0.137;9.803;-0.0877;-0.0585;0.0525;1.06;-1.78;-0.11;236.2;21.63;-0.19;-26.31;271.18;-0.95;1.36;5.0;41.416;;;;NaN;;;;0 / 0;4801;2022-11-17 14:19:09:711
-0.2505;0.1586;9.8831;-0.226;0.137;9.803;-0.0877;-0.0585;0.0525;1.06;-1.78;-0.11;236.2;21.63;-0.19;-26.31;271.18;-0.95;1.36;5.0;41.416;;;;NaN;;;;0 / 0;4811;2022-11-17 14:19:09:721
-0.2505;0.1586;9.8831;-0.226;0.137;9.803;-0.0877;-0.0585;0.0525;1.06;-1.78;-0.11;236.2;21.63;-0.19;-26.31;271.18;-0.95;1.36;5.0;41.416;;;;NaN;;;;0 / 0;4822;2022-11-17 14:19:09:732
-0.2605;0.066;9.8451;-0.226;0.137;9.803;-0.0877;-0.0585;0.0525;1.06;-1.78;-0.11;236.2;21.25;0.19;-26.12;271.04;-0.8;1.32;5.0;41.416;;;;NaN;;;;0 / 0;4831;2022-11-17 14:19:09:741
-0.2605;0.066;9.8451;-0.226;0.137;9.803;-0.0877;-0.0585;0.0525;1.06;-1.78;-0.11;236.2;21.25;0.19;-26.12;271.04;-0.8;1.32;5.0;41.416;;;;NaN;;;;0 / 0;4842;2022-11-17 14:19:09:752
-0.2605;0.066;9.8451;-0.226;0.137;9.803;-0.0877;-0.0585;0.0525;1.06;-1.78;-0.11;236.2;21.25;0.19;-26.12;271.04;-0.8;1.32;5.0;41.416;;;;NaN;;;;0 / 0;4851;2022-11-17 14:19:09:761
-0.2605;0.066;9.8451;-0.226;0.137;9.803;-0.0877;-0.0585;0.0525;1.06;-1.78;-0.11;236.2;21.25;0.19;-26.12;271.04;-0.8;1.32;5.0;41.416;;;;NaN;;;;0 / 0;4862;2022-11-17 14:19:09:772
-0.2605;0.066;9.8451;-0.2295;0.1341;9.803;-0.0843;-0.1047;-0.114;1.06;-1.78;-0.11;236.2;21.25;0.19;-26.12;271.04;-0.8;1.32;5.0;41.416;;;;NaN;;;;0 / 0;4872;2022-11-17 14:19:09:782
-0.2605;0.066;9.8451;-0.2295;0.1341;9.803;-0.0843;-0.1047;-0.114;1.06;-1.78;-0.11;236.2;21.25;0.19;-26.12;271.04;-0.8;1.32;5.0;41.416;;;;NaN;;;;0 / 0;4881;2022-11-17 14:19:09:791
-0.2605;0.066;9.8451;-0.2295;0.1341;9.803;-0.0843;-0.1047;-0.114;1.06;-1.78;-0.11;236.2;21.25;0.19;-26.12;271.04;-0.8;1.32;5.0;41.416;;;;NaN;;;;0 / 0;4892;2022-11-17 14:19:09:802
-0.2605;0.066;9.8451;-0.2295;0.1341;9.803;-0.0843;-0.1047;-0.114;0.24;1.97;-0.32;236.2;21.25;0.19;-26.12;271.04;-0.8;1.32;5.0;41.416;;;;NaN;;;;0 / 0;4902;2022-11-17 14:19:09:812
-0.2605;0.066;9.8451;-0.2295;0.1341;9.803;-0.0843;-0.1047;-0.114;0.24;1.97;-0.32;236.2;21.25;0.19;-26.12;271.04;-0.8;1.32;5.0;41.416;;;;NaN;;;;0 / 0;4912;2022-11-17 14:19:09:822
-0.2605;0.066;9.8451;-0.2295;0.1341;9.803;-0.0843;-0.1047;-0.114;0.24;1.97;-0.32;236.2;21.25;0.19;-26.12;271.04;-0.8;1.32;5.0;40.877;;;;NaN;;;;0 / 0;4922;2022-11-17 14:19:09:832
-0.3428;0.102;9.7022;-0.2295;0.1341;9.803;-0.0843;-0.1047;-0.114;0.24;1.97;-0.32;236.2;21.25;0.19;-26.12;271.04;-0.8;1.32;5.0;40.877;;;;NaN;;;;0 / 0;4932;2022-11-17 14:19:09:842
-0.3428;0.102;9.7022;-0.2295;0.1341;9.803;-0.0843;-0.1047;-0.114;0.24;1.97;-0.32;236.2;21.25;0.19;-26.12;271.04;-0.8;1.32;5.0;40.877;;;;NaN;;;;0 / 0;4942;2022-11-17 14:19:09:852
-0.3428;0.102;9.7022;-0.2295;0.1341;9.803;-0.0843;-0.1047;-0.114;0.24;1.97;-0.32;236.2;21.44;-0.44;-26.19;271.02;-0.78;1.34;5.0;40.877;;;;NaN;;;;0 / 0;4952;2022-11-17 14:19:09:862
-0.3428;0.102;9.7022;-0.2295;0.1341;9.803;-0.0843;-0.1047;-0.114;0.24;1.97;-0.32;236.2;21.44;-0.44;-26.19;271.02;-0.78;1.34;5.0;40.877;;;;NaN;;;;0 / 0;4963;2022-11-17 14:19:09:873
-0.3428;0.102;9.7022;-0.2455;0.1416;9.8025;-0.1075;-0.0729;-0.1037;0.24;1.97;-0.32;236.2;21.44;-0.44;-26.19;271.02;-0.78;1.34;5.0;40.877;;;;NaN;;;;0 / 0;4971;2022-11-17 14:19:09:881
-0.3428;0.102;9.7022;-0.2455;0.1416;9.8025;-0.1075;-0.0729;-0.1037;0.24;1.97;-0.32;236.2;21.44;-0.44;-26.19;271.02;-0.78;1.34;5.0;40.877;;;;NaN;;;;0 / 0;4981;2022-11-17 14:19:09:891
-0.3428;0.102;9.7022;-0.2455;0.1416;9.8025;-0.1075;-0.0729;-0.1037;0.24;1.97;-0.32;236.2;21.44;-0.44;-26.19;271.02;-0.78;1.34;5.0;40.877;;;;NaN;;;;0 / 0;4991;2022-11-17 14:19:09:901
-0.3428;0.102;9.7022;-0.2455;0.1416;9.8025;-0.1075;-0.0729;-0.1037;0.24;1.97;-0.32;236.2;21.44;-0.44;-26.19;271.02;-0.78;1.34;5.0;40.877;;;;NaN;;;;0 / 0;5001;2022-11-17 14:19:09:911
-0.3428;0.102;9.7022;-0.2455;0.1416;9.8025;-0.1075;-0.0729;-0.1037;0.24;1.97;-0.32;236.2;21.44;-0.44;-26.19;271.02;-0.78;1.34;5.0;40.877;;;;NaN;;;;0 / 0;5011;2022-11-17 14:19:09:921
-0.3428;0.102;9.7022;-0.2455;0.1416;9.8025;-0.1075;-0.0729;-0.1037;0.24;1.97;-0.32;236.2;21.44;-0.44;-26.19;271.02;-0.78;1.34;5.0;40.877;;;;NaN;;;;0 / 0;5021;2022-11-17 14:19:09:931
-0.353;0.0639;9.7036;-0.2455;0.1416;9.8025;-0.1075;-0.0729;-0.1037;1.67;-0.99;-0.08;236.2;21.44;-0.44;-26.19;271.02;-0.78;1.34;5.0;40.877;;;;NaN;;;;0 / 0;5031;2022-11-17 14:19:09:941
-0.353;0.0639;9.7036;-0.2455;0.1416;9.8025;-0.1075;-0.0729;-0.1037;1.67;-0.99;-0.08;236.2;21.44;-0.44;-26.19;271.02;-0.78;1.34;5.0;40.877;;;;NaN;;;;0 / 0;5041;2022-11-17 14:19:09:951
-0.353;0.0639;9.7036;-0.2455;0.1416;9.8025;-0.1075;-0.0729;-0.1037;1.67;-0.99;-0.08;236.2;21.44;-0.44;-26.19;271.02;-0.78;1.34;5.0;40.877;;;;NaN;;;;0 / 0;5051;2022-11-17 14:19:09:961
-0.353;0.0639;9.7036;-0.2455;0.1416;9.8025;-0.1075;-0.0729;-0.1037;1.67;-0.99;-0.08;236.2;21.44;-0.44;-26.19;271.02;-0.78;1.34;5.0;40.877;;;;NaN;;;;0 / 0;5061;2022-11-17 14:19:09:971
-0.353;0.0639;9.7036;-0.2415;0.1523;9.8024;-0.0526;-0.1033;-0.1723;1.67;-0.99;-0.08;236.2;21.13;-0.19;-26.12;271.08;-0.83;1.43;5.0;40.877;;;;NaN;;;;0 / 0;5072;2022-11-17 14:19:09:982
-0.353;0.0639;9.7036;-0.2415;0.1523;9.8024;-0.0526;-0.1033;-0.1723;1.67;-0.99;-0.08;236.2;21.13;-0.19;-26.12;271.08;-0.83;1.43;5.0;40.877;;;;NaN;;;;0 / 0;5082;2022-11-17 14:19:09:992
-0.353;0.0639;9.7036;-0.2415;0.1523;9.8024;-0.0526;-0.1033;-0.1723;1.67;-0.99;-0.08;236.2;21.13;-0.19;-26.12;271.08;-0.83;1.43;5.0;40.877;;;;NaN;;;;0 / 0;5092;2022-11-17 14:19:10:002
-0.353;0.0639;9.7036;-0.2415;0.1523;9.8024;-0.0526;-0.1033;-0.1723;1.67;-0.99;-0.08;236.2;21.13;-0.19;-26.12;271.08;-0.83;1.43;5.0;40.877;;;;NaN;;;;0 / 0;5102;2022-11-17 14:19:10:012
-0.353;0.0639;9.7036;-0.2415;0.1523;9.8024;-0.0526;-0.1033;-0.1723;1.67;-0.99;-0.08;236.2;21.13;-0.19;-26.12;271.08;-0.83;1.43;5.0;40.877;;;;NaN;;;;0 / 0;5112;2022-11-17 14:19:10:022
-0.353;0.0639;9.7036;-0.2415;0.1523;9.8024;-0.0526;-0.1033;-0.1723;1.67;-0.99;-0.08;236.2;21.13;-0.19;-26.12;271.08;-0.83;1.43;5.0;40.877;;;;NaN;;;;0 / 0;5121;2022-11-17 14:19:10:031
-0.3;0.069;9.8261;-0.2415;0.1523;9.8024;-0.0526;-0.1033;-0.1723;1.67;-0.99;-0.08;236.2;21.13;-0.19;-26.12;271.08;-0.83;1.43;5.0;40.877;;;;NaN;;;;0 / 0;5131;2022-11-17 14:19:10:041
-0.3;0.069;9.8261;-0.2415;0.1523;9.8024;-0.0526;-0.1033;-0.1723;1.67;-0.99;-0.08;236.2;21.13;-0.19;-26.12;271.08;-0.83;1.43;5.0;40.877;;;;NaN;;;;0 / 0;5141;2022-11-17 14:19:10:051
-0.3;0.069;9.8261;-0.2415;0.1523;9.8024;-0.0526;-0.1033;-0.1723;1.67;-0.99;-0.08;236.2;21.13;-0.19;-26.12;271.08;-0.83;1.43;5.0;40.877;;;;NaN;;;;0 / 0;5152;2022-11-17 14:19:10:062
-0.3;0.069;9.8261;-0.2415;0.1523;9.8024;-0.0526;-0.1033;-0.1723;-0.92;0.14;-0.5;236.2;21.13;-0.19;-26.12;271.08;-0.83;1.43;5.0;40.877;;;;NaN;;;;0 / 0;5161;2022-11-17 14:19:10:071
-0.3;0.069;9.8261;-0.2284;0.1469;9.8028;-0.046;-0.0685;-0.0354;-0.92;0.14;-0.5;236.2;21.13;-0.19;-26.12;271.08;-0.83;1.43;5.0;40.877;;;;NaN;;;;0 / 0;5171;2022-11-17 14:19:10:081
-0.3;0.069;9.8261;-0.2284;0.1469;9.8028;-0.046;-0.0685;-0.0354;-0.92;0.14;-0.5;236.2;21.13;-0.19;-26.12;271.08;-0.83;1.43;5.0;40.877;;;;NaN;;;;0 / 0;5182;2022-11-17 14:19:10:092
-0.3;0.069;9.8261;-0.2284;0.1469;9.8028;-0.046;-0.0685;-0.0354;-0.92;0.14;-0.5;236.2;21.31;-0.12;-25.87;271.11;-0.86;1.33;5.0;40.877;;;;NaN;;;;0 / 0;5192;2022-11-17 14:19:10:102
-0.3;0.069;9.8261;-0.2284;0.1469;9.8028;-0.046;-0.0685;-0.0354;-0.92;0.14;-0.5;236.2;21.31;-0.12;-25.87;271.11;-0.86;1.33;5.0;40.877;;;;NaN;;;;0 / 0;5202;2022-11-17 14:19:10:112
-0.3;0.069;9.8261;-0.2284;0.1469;9.8028;-0.046;-0.0685;-0.0354;-0.92;0.14;-0.5;236.2;21.31;-0.12;-25.87;271.11;-0.86;1.33;5.0;40.877;;;;NaN;;;;0 / 0;5212;2022-11-17 14:19:10:122
-0.3;0.069;9.8261;-0.2284;0.1469;9.8028;-0.046;-0.0685;-0.0354;-0.92;0.14;-0.5;236.2;21.31;-0.12;-25.87;271.11;-0.86;1.33;5.0;40.877;;;;NaN;;;;0 / 0;5222;2022-11-17 14:19:10:132
-0.3649;0.0998;9.6645;-0.2284;0.1469;9.8028;-0.046;-0.0685;-0.0354;-0.92;0.14;-0.5;236.2;21.31;-0.12;-25.87;271.11;-0.86;1.33;5.0;40.877;;;;NaN;;;;0 / 0;5232;2022-11-17 14:19:10:142
-0.3649;0.0998;9.6645;-0.2284;0.1469;9.8028;-0.046;-0.0685;-0.0354;-0.92;0.14;-0.5;236.2;21.31;-0.12;-25.87;271.11;-0.86;1.33;5.0;40.877;;;;NaN;;;;0 / 0;5241;2022-11-17 14:19:10:151
-0.3649;0.0998;9.6645;-0.2284;0.1469;9.8028;-0.046;-0.0685;-0.0354;-0.92;0.14;-0.5;236.2;21.31;-0.12;-25.87;271.11;-0.86;1.33;5.0;40.877;;;;NaN;;;;0 / 0;5252;2022-11-17 14:19:10:162
-0.3649;0.0998;9.6645;-0.2284;0.1469;9.8028;-0.046;-0.0685;-0.0354;-0.92;0.14;-0.5;236.2;21.31;-0.12;-25.87;271.11;-0.86;1.33;5.0;41.586;;;;NaN;;;;0 / 0;5262;2022-11-17 14:19:10:172
-0.3649;0.0998;9.6645;-0.2319;0.1506;9.8027;-0.1504;-0.0427;-0.153;-0.92;0.14;-0.5;236.2;21.31;-0.12;-25.87;271.11;-0.86;1.33;5.0;41.586;;;;NaN;;;;0 / 0;5272;2022-11-17 14:19:10:182
-0.3649;0.0998;9.6645;-0.2319;0.1506;9.8027;-0.1504;-0.0427;-0.153;-0.92;0.14;-0.5;236.2;21.31;-0.12;-25.87;271.11;-0.86;1.33;5.0;41.586;;;;NaN;;;;0 / 0;5282;2022-11-17 14:19:10:192
-0.3649;0.0998;9.6645;-0.2319;0.1506;9.8027;-0.1504;-0.0427;-0.153;-0.92;0.14;-0.5;236.2;21.31;-0.12;-25.87;271.11;-0.86;1.33;5.0;41.586;;;;NaN;;;;0 / 0;5292;2022-11-17 14:19:10:202
-0.3649;0.0998;9.6645;-0.2319;0.1506;9.8027;-0.1504;-0.0427;-0.153;-1.68;-2.91;0.19;236.2;21.31;-0.12;-25.87;271.11;-0.86;1.33;5.0;41.586;;;;NaN;;;;0 / 0;5301;2022-11-17 14:19:10:211
-0.3649;0.0998;9.6645;-0.2319;0.1506;9.8027;-0.1504;-0.0427;-0.153;-1.68;-2.91;0.19;236.2;20.88;0.69;-26.0;273.95;-0.88;1.36;5.0;41.586;;;;NaN;;;;0 / 0;5311;2022-11-17 14:19:10:221
-0.3649;0.0998;9.6645;-0.2319;0.1506;9.8027;-0.1504;-0.0427;-0.153;-1.68;-2.91;0.19;236.2;20.88;0.69;-26.0;273.95;-0.88;1.36;5.0;41.586;;;;NaN;;;;0 / 0;5322;2022-11-17 14:19:10:232
-0.2222;0.0162;9.8644;-0.2319;0.1506;9.8027;-0.1504;-0.0427;-0.153;-1.68;-2.91;0.19;236.2;20.88;0.69;-26.0;273.95;-0.88;1.36;5.0;41.586;;;;NaN;;;;0 / 0;5332;2022-11-17 14:19:10:242
-0.2222;0.0162;9.8644;-0.2319;0.1506;9.8027;-0.1504;-0.0427;-0.153;-1.68;-2.91;0.19;236.2;20.88;0.69;-26.0;273.95;-0.88;1.36;5.0;41.586;;;;NaN;;;;0 / 0;5342;2022-11-17 14:19:10:252
-0.2222;0.0162;9.8644;-0.2319;0.1506;9.8027;-0.1504;-0.0427;-0.153;-1.68;-2.91;0.19;236.2;20.88;0.69;-26.0;273.95;-0.88;1.36;5.0;41.586;;;;NaN;;;;0 / 0;5351;2022-11-17 14:19:10:261
-0.2222;0.0162;9.8644;-0.2319;0.1506;9.8027;-0.1504;-0.0427;-0.153;-1.68;-2.91;0.19;236.2;20.88;0.69;-26.0;273.95;-0.88;1.36;5.0;41.586;;;;NaN;;;;0 / 0;5361;2022-11-17 14:19:10:271
-0.2222;0.0162;9.8644;-0.2319;0.1506;9.8027;0.008;-0.0919;-0.026;-1.68;-2.91;0.19;236.2;20.88;0.69;-26.0;273.95;-0.88;1.36;5.0;41.586;;;;NaN;;;;0 / 0;5371;2022-11-17 14:19:10:281
-0.2222;0.0162;9.8644;-0.2139;0.1409;9.8033;0.008;-0.0919;-0.026;-1.68;-2.91;0.19;236.2;20.88;0.69;-26.0;273.95;-0.88;1.36;5.0;41.586;;;;NaN;;;;0 / 0;5382;2022-11-17 14:19:10:292
-0.2222;0.0162;9.8644;-0.2139;0.1409;9.8033;0.008;-0.0919;-0.026;-1.68;-2.91;0.19;236.2;20.88;0.69;-26.0;273.95;-0.88;1.36;5.0;41.586;;;;NaN;;;;0 / 0;5392;2022-11-17 14:19:10:302
-0.2222;0.0162;9.8644;-0.2139;0.1409;9.8033;0.008;-0.0919;-0.026;-1.68;-2.91;0.19;236.2;20.88;0.69;-26.0;273.95;-0.88;1.36;5.0;41.586;;;;NaN;;;;0 / 0;5401;2022-11-17 14:19:10:311
-0.2222;0.0162;9.8644;-0.2139;0.1409;9.8033;0.008;-0.0919;-0.026;-1.68;-2.91;0.19;236.2;20.88;0.69;-26.0;273.95;-0.88;1.36;5.0;41.586;;;;NaN;;;;0 / 0;5411;2022-11-17 14:19:10:321
-0.2222;0.0162;9.8644;-0.2139;0.1409;9.8033;0.008;-0.0919;-0.026;-1.68;-2.91;0.19;236.2;20.88;0.69;-26.0;273.95;-0.88;1.36;5.0;41.586;;;;NaN;;;;0 / 0;5422;2022-11-17 14:19:10:332
-0.2683;0.0707;9.8039;-0.2139;0.1409;9.8033;0.008;-0.0919;-0.026;1.21;0.17;0.1;236.2;20.88;0.31;-25.81;271.07;-0.82;1.25;5.0;41.586;;;;NaN;;;;0 / 0;5431;2022-11-17 14:19:10:341
-0.2683;0.0707;9.8039;-0.2139;0.1409;9.8033;0.008;-0.0919;-0.026;1.21;0.17;0.1;236.2;20.88;0.31;-25.81;271.07;-0.82;1.25;5.0;41.586;;;;NaN;;;;0 / 0;5442;2022-11-17 14:19:10:352
-0.2683;0.0707;9.8039;-0.2139;0.1409;9.8033;0.008;-0.0919;-0.026;1.21;0.17;0.1;236.2;20.88;0.31;-25.81;271.07;-0.82;1.25;5.0;41.586;;;;NaN;;;;0 / 0;5451;2022-11-17 14:19:10:361
-0.2683;0.0707;9.8039;-0.2139;0.1409;9.8033;0.008;-0.0919;-0.026;1.21;0.17;0.1;235.7;20.88;0.31;-25.81;271.07;-0.82;1.25;5.0;41.586;;;;NaN;;;;0 / 0;5463;2022-11-17 14:19:10:373
-0.2683;0.0707;9.8039;-0.2346;0.1601;9.8025;-0.03;-0.0816;-0.1527;1.21;0.17;0.1;235.7;20.88;0.31;-25.81;271.07;-0.82;1.25;5.0;41.586;;;;NaN;;;;0 / 0;5471;2022-11-17 14:19:10:381
-0.2683;0.0707;9.8039;-0.2346;0.1601;9.8025;-0.03;-0.0816;-0.1527;1.21;0.17;0.1;235.7;20.88;0.31;-25.81;271.07;-0.82;1.25;5.0;41.586;;;;NaN;;;;0 / 0;5481;2022-11-17 14:19:10:391
-0.2683;0.0707;9.8039;-0.2346;0.1601;9.8025;-0.03;-0.0816;-0.1527;1.21;0.17;0.1;235.7;20.88;0.31;-25.81;271.07;-0.82;1.25;5.0;41.586;;;;NaN;;;;0 / 0;5491;2022-11-17 14:19:10:401
-0.2683;0.0707;9.8039;-0.2346;0.1601;9.8025;-0.03;-0.0816;-0.1527;1.21;0.17;0.1;235.7;20.88;0.31;-25.81;271.07;-0.82;1.25;5.0;41.586;;;;NaN;;;;0 / 0;5502;2022-11-17 14:19:10:412
-0.2683;0.0707;9.8039;-0.2346;0.1601;9.8025;-0.03;-0.0816;-0.1527;1.21;0.17;0.1;235.7;20.88;0.31;-25.81;271.07;-0.82;1.25;5.0;41.586;;;;NaN;;;;0 / 0;5512;2022-11-17 14:19:10:422
-0.2683;0.0707;9.8039;-0.2346;0.1601;9.8025;-0.03;-0.0816;-0.1527;1.21;0.17;0.1;235.7;20.88;0.31;-25.81;271.07;-0.82;1.25;5.0;41.586;;;;NaN;;;;0 / 0;5522;2022-11-17 14:19:10:432
-0.3509;0.0679;9.6796;-0.2346;0.1601;9.8025;-0.03;-0.0816;-0.1527;1.21;0.17;0.1;235.7;20.88;0.31;-25.81;271.07;-0.82;1.25;5.0;41.586;;;;NaN;;;;0 / 0;5531;2022-11-17 14:19:10:441
-0.3509;0.0679;9.6796;-0.2346;0.1601;9.8025;-0.03;-0.0816;-0.1527;1.21;0.17;0.1;235.7;20.88;0.31;-25.81;271.07;-0.82;1.25;5.0;41.586;;;;NaN;;;;0 / 0;5541;2022-11-17 14:19:10:451
-0.3509;0.0679;9.6796;-0.2346;0.1601;9.8025;-0.03;-0.0816;-0.1527;1.21;0.17;0.1;235.7;21.0;-0.12;-25.62;271.22;-0.94;1.37;5.0;41.586;;;;NaN;;;;0 / 0;5551;2022-11-17 14:19:10:461
-0.3509;0.0679;9.6796;-0.2346;0.1601;9.8025;-0.03;-0.0816;-0.1527;2.07;-1.26;-0.02;235.7;21.0;-0.12;-25.62;271.22;-0.94;1.37;5.0;41.586;;;;NaN;;;;0 / 0;5561;2022-11-17 14:19:10:471
-0.3509;0.0679;9.6796;-0.2507;0.1822;9.8017;-0.0532;0.053;-0.1618;2.07;-1.26;-0.02;235.7;21.0;-0.12;-25.62;271.22;-0.94;1.37;5.0;41.586;;;;NaN;;;;0 / 0;5571;2022-11-17 14:19:10:481
-0.3509;0.0679;9.6796;-0.2507;0.1822;9.8017;-0.0532;0.053;-0.1618;2.07;-1.26;-0.02;235.7;21.0;-0.12;-25.62;271.22;-0.94;1.37;5.0;41.586;;;;NaN;;;;0 / 0;5582;2022-11-17 14:19:10:492
-0.3509;0.0679;9.6796;-0.2507;0.1822;9.8017;-0.0532;0.053;-0.1618;2.07;-1.26;-0.02;235.7;21.0;-0.12;-25.62;271.22;-0.94;1.37;5.0;41.553;;;;NaN;;;;0 / 0;5591;2022-11-17 14:19:10:501
-0.3509;0.0679;9.6796;-0.2507;0.1822;9.8017;-0.0532;0.053;-0.1618;2.07;-1.26;-0.02;235.7;21.0;-0.12;-25.62;271.22;-0.94;1.37;5.0;41.553;;;;NaN;;;;0 / 0;5601;2022-11-17 14:19:10:511
-0.3509;0.0679;9.6796;-0.2507;0.1822;9.8017;-0.0532;0.053;-0.1618;2.07;-1.26;-0.02;235.7;21.0;-0.12;-25.62;271.22;-0.94;1.37;5.0;41.553;;;;NaN;;;;0 / 0;5611;2022-11-17 14:19:10:521
-0.3509;0.0679;9.6796;-0.2507;0.1822;9.8017;-0.0532;0.053;-0.1618;2.07;-1.26;-0.02;235.7;21.0;-0.12;-25.62;271.22;-0.94;1.37;5.0;41.553;;;;NaN;;;;0 / 0;5621;2022-11-17 14:19:10:531
-0.2881;0.0828;9.8737;-0.2507;0.1822;9.8017;-0.0532;0.053;-0.1618;2.07;-1.26;-0.02;235.7;21.0;-0.12;-25.62;271.22;-0.94;1.37;5.0;41.553;;;;NaN;;;;0 / 0;5631;2022-11-17 14:19:10:541
-0.2881;0.0828;9.8737;-0.2507;0.1822;9.8017;-0.0532;0.053;-0.1618;2.07;-1.26;-0.02;235.7;21.0;-0.12;-25.62;271.22;-0.94;1.37;5.0;41.553;;;;NaN;;;;0 / 0;5642;2022-11-17 14:19:10:552
-0.2881;0.0828;9.8737;-0.2507;0.1822;9.8017;-0.0532;0.053;-0.1618;2.07;-1.26;-0.02;235.7;21.0;-0.12;-25.62;271.22;-0.94;1.37;5.0;41.553;;;;NaN;;;;0 / 0;5651;2022-11-17 14:19:10:561
-0.2881;0.0828;9.8737;-0.2507;0.1822;9.8017;-0.0532;0.053;-0.1618;2.07;-1.26;-0.02;235.7;21.0;-0.12;-25.62;271.22;-0.94;1.37;5.0;41.553;;;;NaN;;;;0 / 0;5662;2022-11-17 14:19:10:572
-0.2881;0.0828;9.8737;-0.2579;0.1903;9.8014;-0.0754;-0.0824;-0.0634;2.07;-1.26;-0.02;235.7;21.0;-0.37;-25.62;271.39;-1.06;1.47;5.0;41.553;;;;NaN;;;;0 / 0;5672;2022-11-17 14:19:10:582
-0.2881;0.0828;9.8737;-0.2579;0.1903;9.8014;-0.0754;-0.0824;-0.0634;2.07;-1.26;-0.02;235.7;21.0;-0.37;-25.62;271.39;-1.06;1.47;5.0;41.553;;;;NaN;;;;0 / 0;5682;2022-11-17 14:19:10:592
-0.2881;0.0828;9.8737;-0.2579;0.1903;9.8014;-0.0754;-0.0824;-0.0634;-0.1;-0.1;0.59;235.7;21.0;-0.37;-25.62;271.39;-1.06;1.47;5.0;41.553;;;;NaN;;;;0 / 0;5692;2022-11-17 14:19:10:602
-0.2881;0.0828;9.8737;-0.2579;0.1903;9.8014;-0.0754;-0.0824;-0.0634;-0.1;-0.1;0.59;235.7;21.0;-0.37;-25.62;271.39;-1.06;1.47;5.0;41.553;;;;NaN;;;;0 / 0;5701;2022-11-17 14:19:10:611
-0.2881;0.0828;9.8737;-0.2579;0.1903;9.8014;-0.0754;-0.0824;-0.0634;-0.1;-0.1;0.59;235.7;21.0;-0.37;-25.62;271.39;-1.06;1.47;5.0;41.553;;;;NaN;;;;0 / 0;5711;2022-11-17 14:19:10:621
-0.2881;0.0828;9.8737;-0.2579;0.1903;9.8014;-0.0754;-0.0824;-0.0634;-0.1;-0.1;0.59;235.7;21.0;-0.37;-25.62;271.39;-1.06;1.47;5.0;41.553;;;;NaN;;;;0 / 0;5721;2022-11-17 14:19:10:631
-0.3518;0.1391;9.7183;-0.2579;0.1903;9.8014;-0.0754;-0.0824;-0.0634;-0.1;-0.1;0.59;235.7;21.0;-0.37;-25.62;271.39;-1.06;1.47;5.0;41.553;;;;NaN;;;;0 / 0;5731;2022-11-17 14:19:10:641
-0.3518;0.1391;9.7183;-0.2579;0.1903;9.8014;-0.0754;-0.0824;-0.0634;-0.1;-0.1;0.59;235.7;21.0;-0.37;-25.62;271.39;-1.06;1.47;5.0;41.553;;;;NaN;;;;0 / 0;5742;2022-11-17 14:19:10:652
-0.3518;0.1391;9.7183;-0.2579;0.1903;9.8014;-0.0754;-0.0824;-0.0634;-0.1;-0.1;0.59;235.7;21.0;-0.37;-25.62;271.39;-1.06;1.47;5.0;41.553;;;;NaN;;;;0 / 0;5752;2022-11-17 14:19:10:662
-0.3518;0.1391;9.7183;-0.2579;0.1903;9.8014;-0.0754;-0.0824;-0.0634;-0.1;-0.1;0.59;235.7;21.0;-0.37;-25.62;271.39;-1.06;1.47;5.0;41.553;;;;NaN;;;;0 / 0;5762;2022-11-17 14:19:10:672
-0.3518;0.1391;9.7183;-0.2539;0.2015;9.8012;-0.0794;-0.1819;-0.1319;-0.1;-0.1;0.59;235.7;21.0;-0.37;-25.62;271.39;-1.06;1.47;5.0;41.553;;;;NaN;;;;0 / 0;5772;2022-11-17 14:19:10:682
-0.3518;0.1391;9.7183;-0.2539;0.2015;9.8012;-0.0794;-0.1819;-0.1319;-0.1;-0.1;0.59;235.7;21.0;-0.37;-25.62;271.39;-1.06;1.47;5.0;41.553;;;;NaN;;;;0 / 0;5782;2022-11-17 14:19:10:692
-0.3518;0.1391;9.7183;-0.2539;0.2015;9.8012;-0.0794;-0.1819;-0.1319;-0.1;-0.1;0.59;235.7;21.5;0.0;-25.94;271.47;-1.18;1.48;5.0;41.553;;;;NaN;;;;0 / 0;5791;2022-11-17 14:19:10:701
-0.3518;0.1391;9.7183;-0.2539;0.2015;9.8012;-0.0794;-0.1819;-0.1319;-0.1;-0.1;0.59;235.7;21.5;0.0;-25.94;271.47;-1.18;1.48;5.0;41.553;;;;NaN;;;;0 / 0;5802;2022-11-17 14:19:10:712
-0.3518;0.1391;9.7183;-0.2539;0.2015;9.8012;-0.0794;-0.1819;-0.1319;-0.1;-0.1;0.59;235.8;21.5;0.0;-25.94;271.47;-1.18;1.48;5.0;41.553;;;;NaN;;;;0 / 0;5811;2022-11-17 14:19:10:721
-0.3518;0.1391;9.7183;-0.2539;0.2015;9.8012;-0.0794;-0.1819;-0.1319;-0.1;-0.1;0.59;235.8;21.5;0.0;-25.94;271.47;-1.18;1.48;5.0;41.553;;;;NaN;;;;0 / 0;5821;2022-11-17 14:19:10:731
-0.2915;0.212;9.6734;-0.2539;0.2015;9.8012;-0.0794;-0.1819;-0.1319;0.39;0.05;0.17;235.8;21.5;0.0;-25.94;271.47;-1.18;1.48;5.0;41.553;;;;NaN;;;;0 / 0;5831;2022-11-17 14:19:10:741
-0.2915;0.212;9.6734;-0.2539;0.2015;9.8012;-0.0794;-0.1819;-0.1319;0.39;0.05;0.17;235.8;21.5;0.0;-25.94;271.47;-1.18;1.48;5.0;41.553;;;;NaN;;;;0 / 0;5841;2022-11-17 14:19:10:751
-0.2915;0.212;9.6734;-0.2539;0.2015;9.8012;-0.0794;-0.1819;-0.1319;0.39;0.05;0.17;235.8;21.5;0.0;-25.94;271.47;-1.18;1.48;5.0;41.553;;;;NaN;;;;0 / 0;5852;2022-11-17 14:19:10:762
-0.2915;0.212;9.6734;-0.2539;0.2015;9.8012;-0.0794;-0.1819;-0.1319;0.39;0.05;0.17;235.8;21.5;0.0;-25.94;271.47;-1.18;1.48;5.0;41.553;;;;NaN;;;;0 / 0;5861;2022-11-17 14:19:10:771
-0.2915;0.212;9.6734;-0.2539;0.2015;9.8012;-0.0794;-0.1819;-0.1319;0.39;0.05;0.17;235.8;21.5;0.0;-25.94;271.47;-1.18;1.48;5.0;41.553;;;;NaN;;;;0 / 0;5871;2022-11-17 14:19:10:781
-0.2915;0.212;9.6734;-0.26;0.1951;9.8012;-0.1027;-0.0774;-0.024;0.39;0.05;0.17;235.8;21.5;0.0;-25.94;271.47;-1.18;1.48;5.0;41.553;;;;NaN;;;;0 / 0;5881;2022-11-17 14:19:10:791
-0.2915;0.212;9.6734;-0.26;0.1951;9.8012;-0.1027;-0.0774;-0.024;0.39;0.05;0.17;235.8;21.5;0.0;-25.94;271.47;-1.18;1.48;5.0;41.553;;;;NaN;;;;0 / 0;5891;2022-11-17 14:19:10:801
-0.2915;0.212;9.6734;-0.26;0.1951;9.8012;-0.1027;-0.0774;-0.024;0.39;0.05;0.17;235.8;21.5;0.0;-25.94;271.47;-1.18;1.48;5.0;40.842;;;;NaN;;;;0 / 0;5902;2022-11-17 14:19:10:812
-0.2915;0.212;9.6734;-0.26;0.1951;9.8012;-0.1027;-0.0774;-0.024;0.39;0.05;0.17;235.8;21.38;0.19;-25.56;271.49;-1.14;1.52;5.0;40.842;;;;NaN;;;;0 / 0;5912;2022-11-17 14:19:10:822
-0.2915;0.212;9.6734;-0.26;0.1951;9.8012;-0.1027;-0.0774;-0.024;0.39;0.05;0.17;235.8;21.38;0.19;-25.56;271.49;-1.14;1.52;5.0;40.842;;;;NaN;;;;0 / 0;5922;2022-11-17 14:19:10:832
-0.3059;0.1031;9.8542;-0.26;0.1951;9.8012;-0.1027;-0.0774;-0.024;0.39;0.05;0.17;235.8;21.38;0.19;-25.56;271.49;-1.14;1.52;5.0;40.842;;;;NaN;;;;0 / 0;5932;2022-11-17 14:19:10:842
-0.3059;0.1031;9.8542;-0.26;0.1951;9.8012;-0.1027;-0.0774;-0.024;0.39;0.05;0.17;235.8;21.38;0.19;-25.56;271.49;-1.14;1.52;5.0;40.842;;;;NaN;;;;0 / 0;5942;2022-11-17 14:19:10:852
-0.3059;0.1031;9.8542;-0.26;0.1951;9.8012;-0.1027;-0.0774;-0.024;0.39;0.05;0.17;235.8;21.38;0.19;-25.56;271.49;-1.14;1.52;5.0;40.842;;;;NaN;;;;0 / 0;5952;2022-11-17 14:19:10:862
-0.3059;0.1031;9.8542;-0.26;0.1951;9.8012;-0.1027;-0.0774;-0.024;0.24;-1.35;0.47;235.8;21.38;0.19;-25.56;271.49;-1.14;1.52;5.0;40.842;;;;NaN;;;;0 / 0;5962;2022-11-17 14:19:10:872
-0.3059;0.1031;9.8542;-0.2409;0.1834;9.8019;-0.0434;-0.1147;-0.0149;0.24;-1.35;0.47;235.8;21.38;0.19;-25.56;271.49;-1.14;1.52;5.0;40.842;;;;NaN;;;;0 / 0;5972;2022-11-17 14:19:10:882
-0.3059;0.1031;9.8542;-0.2409;0.1834;9.8019;-0.0434;-0.1147;-0.0149;0.24;-1.35;0.47;235.8;21.38;0.19;-25.56;271.49;-1.14;1.52;5.0;40.842;;;;NaN;;;;0 / 0;5981;2022-11-17 14:19:10:891
-0.3059;0.1031;9.8542;-0.2409;0.1834;9.8019;-0.0434;-0.1147;-0.0149;0.24;-1.35;0.47;235.8;21.38;0.19;-25.56;271.49;-1.14;1.52;5.0;40.842;;;;NaN;;;;0 / 0;5991;2022-11-17 14:19:10:901
-0.3059;0.1031;9.8542;-0.2409;0.1834;9.8019;-0.0434;-0.1147;-0.0149;0.24;-1.35;0.47;235.8;21.38;0.19;-25.56;271.49;-1.14;1.52;5.0;40.842;;;;NaN;;;;0 / 0;6002;2022-11-17 14:19:10:912
-0.3059;0.1031;9.8542;-0.2409;0.1834;9.8019;-0.0434;-0.1147;-0.0149;0.24;-1.35;0.47;235.8;21.38;0.19;-25.56;271.49;-1.14;1.52;5.0;40.842;;;;NaN;;;;0 / 0;6012;2022-11-17 14:19:10:922
-0.3059;0.1031;9.8542;-0.2409;0.1834;9.8019;-0.0434;-0.1147;-0.0149;0.24;-1.35;0.47;235.8;21.38;0.19;-25.56;271.49;-1.14;1.52;5.0;40.842;;;;NaN;;;;0 / 0;6022;2022-11-17 14:19:10:932
-0.2458;0.1894;9.7032;-0.2409;0.1834;9.8019;-0.0434;-0.1147;-0.0149;0.24;-1.35;0.47;235.8;21.19;0.19;-26.06;271.4;-1.07;1.41;5.0;40.842;;;;NaN;;;;0 / 0;6032;2022-11-17 14:19:10:942
-0.2458;0.1894;9.7032;-0.2409;0.1834;9.8019;-0.0434;-0.1147;-0.0149;0.24;-1.35;0.47;235.8;21.19;0.19;-26.06;271.4;-1.07;1.41;5.0;40.842;;;;NaN;;;;0 / 0;6042;2022-11-17 14:19:10:952
-0.2458;0.1894;9.7032;-0.2409;0.1834;9.8019;-0.0434;-0.1147;-0.0149;0.24;-1.35;0.47;235.8;21.19;0.19;-26.06;271.4;-1.07;1.41;5.0;40.842;;;;NaN;;;;0 / 0;6051;2022-11-17 14:19:10:961
-0.2458;0.1894;9.7032;-0.2409;0.1834;9.8019;-0.0434;-0.1147;-0.0149;0.24;-1.35;0.47;235.8;21.19;0.19;-26.06;271.4;-1.07;1.41;5.0;40.842;;;;NaN;;;;0 / 0;6061;2022-11-17 14:19:10:971
-0.2458;0.1894;9.7032;-0.2344;0.1717;9.8023;-0.0499;-0.1325;-0.0153;0.24;-1.35;0.47;235.8;21.19;0.19;-26.06;271.4;-1.07;1.41;5.0;40.842;;;;NaN;;;;0 / 0;6072;2022-11-17 14:19:10:982
-0.2458;0.1894;9.7032;-0.2344;0.1717;9.8023;-0.0499;-0.1325;-0.0153;0.24;-1.35;0.47;235.8;21.19;0.19;-26.06;271.4;-1.07;1.41;5.0;40.842;;;;NaN;;;;0 / 0;6082;2022-11-17 14:19:10:992
-0.2458;0.1894;9.7032;-0.2344;0.1717;9.8023;-0.0499;-0.1325;-0.0153;-1.1;1.27;0.59;235.8;21.19;0.19;-26.06;271.4;-1.07;1.41;5.0;40.842;;;;NaN;;;;0 / 0;6091;2022-11-17 14:19:11:001
-0.2458;0.1894;9.7032;-0.2344;0.1717;9.8023;-0.0499;-0.1325;-0.0153;-1.1;1.27;0.59;235.8;21.19;0.19;-26.06;271.4;-1.07;1.41;5.0;40.842;;;;NaN;;;;0 / 0;6101;2022-11-17 14:19:11:011
-0.2458;0.1894;9.7032;-0.2344;0.1717;9.8023;-0.0499;-0.1325;-0.0153;-1.1;1.27;0.59;235.8;21.19;0.19;-26.06;271.4;-1.07;1.41;5.0;40.842;;;;NaN;;;;0 / 0;6111;2022-11-17 14:19:11:021
-0.2458;0.1894;9.7032;-0.2344;0.1717;9.8023;-0.0499;-0.1325;-0.0153;-1.1;1.27;0.59;235.8;21.19;0.19;-26.06;271.4;-1.07;1.41;5.0;40.842;;;;NaN;;;;0 / 0;6122;2022-11-17 14:19:11:032
-0.3064;0.0699;9.7908;-0.2344;0.1717;9.8023;-0.0499;-0.1325;-0.0153;-1.1;1.27;0.59;235.8;21.19;0.19;-26.06;271.4;-1.07;1.41;5.0;40.842;;;;NaN;;;;0 / 0;6132;2022-11-17 14:19:11:042
-0.3064;0.0699;9.7908;-0.2344;0.1717;9.8023;-0.0499;-0.1325;-0.0153;-1.1;1.27;0.59;235.8;21.19;0.19;-26.06;271.4;-1.07;1.41;5.0;40.842;;;;NaN;;;;0 / 0;6141;2022-11-17 14:19:11:051
-0.3064;0.0699;9.7908;-0.2344;0.1717;9.8023;-0.0499;-0.1325;-0.0153;-1.1;1.27;0.59;235.8;21.38;-0.06;-26.12;271.3;-1.0;1.37;5.0;40.842;;;;NaN;;;;0 / 0;6151;2022-11-17 14:19:11:061
-0.3064;0.0699;9.7908;-0.2344;0.1717;9.8023;-0.0499;-0.1325;-0.0153;-1.1;1.27;0.59;235.3;21.38;-0.06;-26.12;271.3;-1.0;1.37;5.0;40.842;;;;NaN;;;;0 / 0;6162;2022-11-17 14:19:11:072
-0.3064;0.0699;9.7908;-0.2484;0.1795;9.8018;-0.0947;-0.0226;-0.0344;-1.1;1.27;0.59;235.3;21.38;-0.06;-26.12;271.3;-1.0;1.37;5.0;40.842;;;;NaN;;;;0 / 0;6172;2022-11-17 14:19:11:082
-0.3064;0.0699;9.7908;-0.2484;0.1795;9.8018;-0.0947;-0.0226;-0.0344;-1.1;1.27;0.59;235.3;21.38;-0.06;-26.12;271.3;-1.0;1.37;5.0;40.842;;;;NaN;;;;0 / 0;6181;2022-11-17 14:19:11:091
-0.3064;0.0699;9.7908;-0.2484;0.1795;9.8018;-0.0947;-0.0226;-0.0344;-1.1;1.27;0.59;235.3;21.38;-0.06;-26.12;271.3;-1.0;1.37;5.0;40.842;;;;NaN;;;;0 / 0;6191;2022-11-17 14:19:11:101
-0.3064;0.0699;9.7908;-0.2484;0.1795;9.8018;-0.0947;-0.0226;-0.0344;-1.1;1.27;0.59;235.3;21.38;-0.06;-26.12;271.3;-1.0;1.37;5.0;40.842;;;;NaN;;;;0 / 0;6202;2022-11-17 14:19:11:112
-0.3064;0.0699;9.7908;-0.2484;0.1795;9.8018;-0.0947;-0.0226;-0.0344;-1.1;1.27;0.59;235.3;21.38;-0.06;-26.12;271.3;-1.0;1.37;5.0;40.842;;;;NaN;;;;0 / 0;6211;2022-11-17 14:19:11:121
-0.3064;0.0699;9.7908;-0.2484;0.1795;9.8018;-0.0947;-0.0226;-0.0344;-0.83;-3.03;-0.35;235.3;21.38;-0.06;-26.12;271.3;-1.0;1.37;5.0;40.842;;;;NaN;;;;0 / 0;6221;2022-11-17 14:19:11:131
-0.2712;0.1272;9.6419;-0.2484;0.1795;9.8018;-0.0947;-0.0226;-0.0344;-0.83;-3.03;-0.35;235.3;21.38;-0.06;-26.12;271.3;-1.0;1.37;5.0;40.842;;;;NaN;;;;0 / 0;6231;2022-11-17 14:19:11:141
-0.2712;0.1272;9.6419;-0.2484;0.1795;9.8018;-0.0947;-0.0226;-0.0344;-0.83;-3.03;-0.35;235.3;21.38;-0.06;-26.12;271.3;-1.0;1.37;5.0;40.842;;;;NaN;;;;0 / 0;6241;2022-11-17 14:19:11:151
-0.2712;0.1272;9.6419;-0.2484;0.1795;9.8018;-0.0947;-0.0226;-0.0344;-0.83;-3.03;-0.35;235.3;21.38;-0.06;-26.12;271.3;-1.0;1.37;5.0;39.983;;;;NaN;;;;0 / 0;6251;2022-11-17 14:19:11:161
-0.2712;0.1272;9.6419;-0.2484;0.1795;9.8018;-0.0947;-0.0226;-0.0344;-0.83;-3.03;-0.35;235.3;21.38;-0.06;-26.12;271.3;-1.0;1.37;5.0;39.983;;;;NaN;;;;0 / 0;6262;2022-11-17 14:19:11:172
-0.2712;0.1272;9.6419;-0.2302;0.1813;9.8022;0.0635;-0.0637;0.0828;-0.83;-3.03;-0.35;235.3;21.19;-0.25;-26.0;271.37;-1.05;1.45;5.0;39.983;;;;NaN;;;;0 / 0;6272;2022-11-17 14:19:11:182
-0.2712;0.1272;9.6419;-0.2302;0.1813;9.8022;0.0635;-0.0637;0.0828;-0.83;-3.03;-0.35;235.3;21.19;-0.25;-26.0;271.37;-1.05;1.45;5.0;39.983;;;;NaN;;;;0 / 0;6282;2022-11-17 14:19:11:192
-0.2712;0.1272;9.6419;-0.2302;0.1813;9.8022;0.0635;-0.0637;0.0828;-0.83;-3.03;-0.35;235.3;21.19;-0.25;-26.0;271.37;-1.05;1.45;5.0;39.983;;;;NaN;;;;0 / 0;6292;2022-11-17 14:19:11:202
-0.2712;0.1272;9.6419;-0.2302;0.1813;9.8022;0.0635;-0.0637;0.0828;-0.83;-3.03;-0.35;235.3;21.19;-0.25;-26.0;271.37;-1.05;1.45;5.0;39.983;;;;NaN;;;;0 / 0;6301;2022-11-17 14:19:11:211
-0.2712;0.1272;9.6419;-0.2302;0.1813;9.8022;0.0635;-0.0637;0.0828;-0.83;-3.03;-0.35;235.3;21.19;-0.25;-26.0;271.37;-1.05;1.45;5.0;39.983;;;;NaN;;;;0 / 0;6311;2022-11-17 14:19:11:221
-0.2712;0.1272;9.6419;-0.2302;0.1813;9.8022;0.0635;-0.0637;0.0828;-0.83;-3.03;-0.35;235.3;21.19;-0.25;-26.0;271.37;-1.05;1.45;5.0;39.983;;;;NaN;;;;0 / 0;6321;2022-11-17 14:19:11:231
-0.385;0.1424;9.6641;-0.2302;0.1813;9.8022;0.0635;-0.0637;0.0828;-0.83;-3.03;-0.35;235.3;21.19;-0.25;-26.0;271.37;-1.05;1.45;5.0;39.983;;;;NaN;;;;0 / 0;6332;2022-11-17 14:19:11:242
-0.385;0.1424;9.6641;-0.2302;0.1813;9.8022;0.0635;-0.0637;0.0828;-0.83;-3.03;-0.35;235.3;21.19;-0.25;-26.0;271.37;-1.05;1.45;5.0;39.983;;;;NaN;;;;0 / 0;6342;2022-11-17 14:19:11:252
-0.385;0.1424;9.6641;-0.2302;0.1813;9.8022;0.0635;-0.0637;0.0828;1.27;-5.93;-0.02;235.3;21.19;-0.25;-26.0;271.37;-1.05;1.45;5.0;39.983;;;;NaN;;;;0 / 0;6352;2022-11-17 14:19:11:262
-0.385;0.1424;9.6641;-0.2302;0.1813;9.8022;0.0635;-0.0637;0.0828;1.27;-5.93;-0.02;235.3;21.19;-0.25;-26.0;271.37;-1.05;1.45;5.0;39.983;;;;NaN;;;;0 / 0;6361;2022-11-17 14:19:11:271
-0.385;0.1424;9.6641;-0.2302;0.1813;9.8022;-0.0384;0.0156;-0.1914;1.27;-5.93;-0.02;235.3;21.19;-0.25;-26.0;271.37;-1.05;1.45;5.0;39.983;;;;NaN;;;;0 / 0;6371;2022-11-17 14:19:11:281
-0.385;0.1424;9.6641;-0.2165;0.2098;9.802;-0.0384;0.0156;-0.1914;1.27;-5.93;-0.02;235.3;21.19;-0.25;-26.0;271.37;-1.05;1.45;5.0;39.983;;;;NaN;;;;0 / 0;6381;2022-11-17 14:19:11:291
-0.385;0.1424;9.6641;-0.2165;0.2098;9.802;-0.0384;0.0156;-0.1914;1.27;-5.93;-0.02;235.3;20.75;0.0;-25.81;271.59;-1.23;1.27;5.0;39.983;;;;NaN;;;;0 / 0;6391;2022-11-17 14:19:11:301
-0.385;0.1424;9.6641;-0.2165;0.2098;9.802;-0.0384;0.0156;-0.1914;1.27;-5.93;-0.02;235.3;20.75;0.0;-25.81;271.59;-1.23;1.27;5.0;39.983;;;;NaN;;;;0 / 0;6401;2022-11-17 14:19:11:311
-0.385;0.1424;9.6641;-0.2165;0.2098;9.802;-0.0384;0.0156;-0.1914;1.27;-5.93;-0.02;235.3;20.75;0.0;-25.81;271.59;-1.23;1.27;5.0;39.983;;;;NaN;;;;0 / 0;6411;2022-11-17 14:19:11:321
-0.385;0.1424;9.6641;-0.2165;0.2098;9.802;-0.0384;0.0156;-0.1914;1.27;-5.93;-0.02;235.3;20.75;0.0;-25.81;271.59;-1.23;1.27;5.0;39.983;;;;NaN;;;;0 / 0;6422;2022-11-17 14:19:11:332
-0.1127;0.0862;9.7371;-0.2165;0.2098;9.802;-0.0384;0.0156;-0.1914;1.27;-5.93;-0.02;235.3;20.75;0.0;-25.81;271.59;-1.23;1.27;5.0;39.983;;;;NaN;;;;0 / 0;6431;2022-11-17 14:19:11:341
-0.1127;0.0862;9.7371;-0.2165;0.2098;9.802;-0.0384;0.0156;-0.1914;1.27;-5.93;-0.02;235.3;20.75;0.0;-25.81;271.59;-1.23;1.27;5.0;39.983;;;;NaN;;;;0 / 0;6441;2022-11-17 14:19:11:351
-0.1127;0.0862;9.7371;-0.2165;0.2098;9.802;-0.0384;0.0156;-0.1914;1.27;-5.93;-0.02;235.3;20.75;0.0;-25.81;271.59;-1.23;1.27;5.0;39.983;;;;NaN;;;;0 / 0;6451;2022-11-17 14:19:11:361
-0.1127;0.0862;9.7371;-0.2165;0.2098;9.802;-0.0384;0.0156;-0.1914;1.27;-5.93;-0.02;235.3;20.75;0.0;-25.81;271.59;-1.23;1.27;5.0;39.983;;;;NaN;;;;0 / 0;6462;2022-11-17 14:19:11:372
-0.1127;0.0862;9.7371;-0.1432;0.1856;9.8038;-0.0627;-0.1366;0.0322;1.27;-5.93;-0.02;235.3;20.75;0.0;-25.81;271.59;-1.23;1.27;5.0;39.983;;;;NaN;;;;0 / 0;6471;2022-11-17 14:19:11:381
-0.1127;0.0862;9.7371;-0.1432;0.1856;9.8038;-0.0627;-0.1366;0.0322;1.27;-5.93;-0.02;235.3;20.75;0.0;-25.81;271.59;-1.23;1.27;5.0;39.983;;;;NaN;;;;0 / 0;6481;2022-11-17 14:19:11:391
-0.1127;0.0862;9.7371;-0.1432;0.1856;9.8038;-0.0627;-0.1366;0.0322;-0.28;2.18;0.56;235.3;20.75;0.0;-25.81;271.59;-1.23;1.27;5.0;39.983;;;;NaN;;;;0 / 0;6491;2022-11-17 14:19:11:401
-0.1127;0.0862;9.7371;-0.1432;0.1856;9.8038;-0.0627;-0.1366;0.0322;-0.28;2.18;0.56;235.3;20.75;0.0;-25.81;271.59;-1.23;1.27;5.0;39.983;;;;NaN;;;;0 / 0;6501;2022-11-17 14:19:11:411
-0.1127;0.0862;9.7371;-0.1432;0.1856;9.8038;-0.0627;-0.1366;0.0322;-0.28;2.18;0.56;234.3;21.25;-0.31;-26.31;271.38;-1.08;0.84;5.0;39.983;;;;NaN;;;;0 / 0;6511;2022-11-17 14:19:11:421
-0.1127;0.0862;9.7371;-0.1432;0.1856;9.8038;-0.0627;-0.1366;0.0322;-0.28;2.18;0.56;234.3;21.25;-0.31;-26.31;271.38;-1.08;0.84;5.0;39.983;;;;NaN;;;;0 / 0;6521;2022-11-17 14:19:11:431
-0.2704;0.0962;9.7319;-0.1432;0.1856;9.8038;-0.0627;-0.1366;0.0322;-0.28;2.18;0.56;234.3;21.25;-0.31;-26.31;271.38;-1.08;0.84;5.0;39.983;;;;NaN;;;;0 / 0;6532;2022-11-17 14:19:11:442
-0.2704;0.0962;9.7319;-0.1432;0.1856;9.8038;-0.0627;-0.1366;0.0322;-0.28;2.18;0.56;234.3;21.25;-0.31;-26.31;271.38;-1.08;0.84;5.0;39.983;;;;NaN;;;;0 / 0;6541;2022-11-17 14:19:11:451
-0.2704;0.0962;9.7319;-0.1432;0.1856;9.8038;-0.0627;-0.1366;0.0322;-0.28;2.18;0.56;234.3;21.25;-0.31;-26.31;271.38;-1.08;0.84;5.0;39.983;;;;NaN;;;;0 / 0;6552;2022-11-17 14:19:11:462
-0.2704;0.0962;9.7319;-0.1432;0.1856;9.8038;-0.0627;-0.1366;0.0322;-0.28;2.18;0.56;234.3;21.25;-0.31;-26.31;271.38;-1.08;0.84;5.0;39.25;;;;NaN;;;;0 / 0;6562;2022-11-17 14:19:11:472
-0.2704;0.0962;9.7319;-0.1432;0.1856;9.8038;-0.1482;-0.0593;-0.1045;-0.28;2.18;0.56;234.3;21.25;-0.31;-26.31;271.38;-1.08;0.84;5.0;39.25;;;;NaN;;;;0 / 0;6572;2022-11-17 14:19:11:482
-0.2704;0.0962;9.7319;-0.1754;0.1868;9.8033;-0.1482;-0.0593;-0.1045;-0.28;2.18;0.56;234.3;21.25;-0.31;-26.31;271.38;-1.08;0.84;5.0;39.25;;;;NaN;;;;0 / 0;6582;2022-11-17 14:19:11:492
-0.2704;0.0962;9.7319;-0.1754;0.1868;9.8033;-0.1482;-0.0593;-0.1045;-0.28;2.18;0.56;234.3;21.25;-0.31;-26.31;271.38;-1.08;0.84;5.0;39.25;;;;NaN;;;;0 / 0;6591;2022-11-17 14:19:11:501
-0.2704;0.0962;9.7319;-0.1754;0.1868;9.8033;-0.1482;-0.0593;-0.1045;-0.28;2.18;0.56;234.3;21.25;-0.31;-26.31;271.38;-1.08;0.84;5.0;39.25;;;;NaN;;;;0 / 0;6602;2022-11-17 14:19:11:512
-0.2704;0.0962;9.7319;-0.1754;0.1868;9.8033;-0.1482;-0.0593;-0.1045;-0.28;2.18;0.56;234.3;21.25;-0.31;-26.31;271.38;-1.08;0.84;5.0;39.25;;;;NaN;;;;0 / 0;6611;2022-11-17 14:19:11:521
