sep=;
ACCELEROMETER X (m/s²);ACCELEROMETER Y (m/s²);ACCELEROMETER Z (m/s²);GRAVITY X (m/s²);GRAVITY Y (m/s²);GRAVITY Z (m/s²);LINEAR ACCELERATION X (m/s²);LINEAR ACCELERATION Y (m/s²);LINEAR ACCELERATION Z (m/s²);GYROSCOPE X (°/s);GYROSCOPE Y (°/s);GYROSCOPE Z (°/s);LIGHT (lux);MAGNETIC FIELD X (μT);MAGNETIC FIELD Y (μT);MAGNETIC FIELD Z (μT);ORIENTATION Z (azimuth °);ORIENTATION X (pitch °);ORIENTATION Y (roll °);PROXIMITY (m);SOUND LEVEL (dB);LOCATION Latitude : ;LOCATION Longitude : ;LOCATION Altitude ( m);LOCATION Altitude-google ( m);LOCATION Speed ( m/s);LOCATION Accuracy ( m);LOCATION ORIENTATION (°);Satellites in range;Time since start in ms ;YYYY-MO-DD HH-MI-SS_SSS
0.0807;0.0171;9.7525;-0.16;-0.0193;9.8053;0.2286;0.0193;-0.0575;0.12;0.25;0.15;41.1;-19.56;3.94;-27.44;79.08;0.12;0.93;5.0;32.633;;;;NaN;;;;0 / 0;33;2022-11-17 13:44:58:209
0.0807;0.0171;9.7525;-0.16;-0.0193;9.8053;0.2286;0.0193;-0.0575;0.12;0.25;0.15;41.1;-19.56;3.94;-27.44;79.08;0.12;0.93;5.0;32.633;;;;NaN;;;;0 / 0;43;2022-11-17 13:44:58:219
0.0807;0.0171;9.7525;-0.1624;-0.0169;9.8052;0.2408;0.0169;-0.0672;0.12;0.25;0.15;41.1;-19.56;3.94;-27.44;79.08;0.12;0.93;5.0;32.633;;;;NaN;;;;0 / 0;52;2022-11-17 13:44:58:228
0.0807;0.0171;9.7525;-0.1624;-0.0169;9.8052;0.2408;0.0169;-0.0672;0.12;0.25;0.15;41.1;-19.56;3.94;-27.44;79.08;0.12;0.93;5.0;32.633;;;;NaN;;;;0 / 0;62;2022-11-17 13:44:58:238
0.0807;0.0171;9.7525;-0.1624;-0.0169;9.8052;0.2408;0.0169;-0.0672;0.12;0.25;0.15;41.1;-19.25;3.75;-27.31;78.51;0.1;0.95;5.0;32.633;;;;NaN;;;;0 / 0;72;2022-11-17 13:44:58:248
0.0754;0.019;9.7481;-0.1624;-0.0169;9.8052;0.2408;0.0169;-0.0672;0.09;0.22;0.15;41.1;-19.25;3.75;-27.31;78.51;0.1;0.95;5.0;32.633;;;;NaN;;;;0 / 0;82;2022-11-17 13:44:58:258
0.0754;0.019;9.7481;-0.1624;-0.0169;9.8052;0.2408;0.0169;-0.0672;0.09;0.22;0.15;41.1;-19.25;3.75;-27.31;78.51;0.1;0.95;5.0;32.633;;;;NaN;;;;0 / 0;92;2022-11-17 13:44:58:268
0.0754;0.019;9.7481;-0.1624;-0.0169;9.8052;0.2408;0.0169;-0.0672;0.09;0.22;0.15;41.1;-19.25;3.75;-27.31;78.51;0.1;0.95;5.0;32.633;;;;NaN;;;;0 / 0;103;2022-11-17 13:44:58:279
0.0754;0.019;9.7481;-0.1624;-0.0169;9.8052;0.2408;0.0169;-0.0672;0.09;0.22;0.15;41.1;-19.25;3.75;-27.31;78.51;0.1;0.95;5.0;32.633;;;;NaN;;;;0 / 0;112;2022-11-17 13:44:58:288
0.0754;0.019;9.7481;-0.1624;-0.0169;9.8052;0.2408;0.0169;-0.0672;0.09;0.22;0.15;41.1;-19.25;3.75;-27.31;78.51;0.1;0.95;5.0;32.633;;;;NaN;;;;0 / 0;122;2022-11-17 13:44:58:298
0.0754;0.019;9.7481;-0.1624;-0.0169;9.8052;0.2408;0.0169;-0.0672;0.09;0.22;0.15;41.1;-19.25;3.75;-27.31;78.51;0.1;0.95;5.0;32.633;;;;NaN;;;;0 / 0;132;2022-11-17 13:44:58:308
0.0754;0.019;9.7481;-0.1624;-0.0169;9.8052;0.2408;0.0169;-0.0672;0.09;0.22;0.15;41.1;-19.25;3.75;-27.31;78.51;0.1;0.95;5.0;32.633;;;;NaN;;;;0 / 0;143;2022-11-17 13:44:58:319
0.0754;0.019;9.7481;-0.1636;-0.015;9.8052;0.2225;0.0248;-0.077;0.09;0.22;0.15;41.1;-19.25;3.75;-27.31;78.51;0.1;0.95;5.0;32.633;;;;NaN;;;;0 / 0;152;2022-11-17 13:44:58:328
0.0754;0.019;9.7481;-0.1636;-0.015;9.8052;0.2225;0.0248;-0.077;0.09;0.22;0.15;41.1;-19.25;3.75;-27.31;78.51;0.1;0.95;5.0;32.633;;;;NaN;;;;0 / 0;162;2022-11-17 13:44:58:338
0.0754;0.019;9.7481;-0.1636;-0.015;9.8052;0.2225;0.0248;-0.077;0.09;0.22;0.15;41.1;-19.25;3.75;-27.31;78.51;0.1;0.95;5.0;32.633;;;;NaN;;;;0 / 0;172;2022-11-17 13:44:58:348
0.0754;0.019;9.7481;-0.1636;-0.015;9.8052;0.2225;0.0248;-0.077;0.09;0.22;0.15;51.1;-19.25;3.75;-27.31;78.51;0.1;0.95;5.0;32.633;;;;NaN;;;;0 / 0;183;2022-11-17 13:44:58:359
0.0754;0.019;9.7481;-0.1636;-0.015;9.8052;0.2225;0.0248;-0.077;0.09;0.22;0.15;51.1;-19.19;3.75;-27.12;78.49;0.09;0.96;5.0;32.633;;;;NaN;;;;0 / 0;192;2022-11-17 13:44:58:368
0.0754;0.019;9.7481;-0.1636;-0.015;9.8052;0.2225;0.0248;-0.077;0.09;0.22;0.15;51.1;-19.19;3.75;-27.12;78.49;0.09;0.96;5.0;32.633;;;;NaN;;;;0 / 0;203;2022-11-17 13:44:58:379
0.0861;0.0199;9.7478;-0.1636;-0.015;9.8052;0.2225;0.0248;-0.077;0.06;0.16;0.09;51.1;-19.19;3.75;-27.12;78.49;0.09;0.96;5.0;32.633;;;;NaN;;;;0 / 0;213;2022-11-17 13:44:58:389
0.0861;0.0199;9.7478;-0.1636;-0.015;9.8052;0.2225;0.0248;-0.077;0.06;0.16;0.09;51.1;-19.19;3.75;-27.12;78.49;0.09;0.96;5.0;32.633;;;;NaN;;;;0 / 0;223;2022-11-17 13:44:58:399
0.0861;0.0199;9.7478;-0.1636;-0.015;9.8052;0.2225;0.0248;-0.077;0.06;0.16;0.09;51.1;-19.19;3.75;-27.12;78.49;0.09;0.96;5.0;32.633;;;;NaN;;;;0 / 0;233;2022-11-17 13:44:58:409
0.0861;0.0199;9.7478;-0.1636;-0.015;9.8052;0.2225;0.0248;-0.077;0.06;0.16;0.09;51.1;-19.19;3.75;-27.12;78.49;0.09;0.96;5.0;32.633;;;;NaN;;;;0 / 0;242;2022-11-17 13:44:58:418
0.0861;0.0199;9.7478;-0.1655;-0.0132;9.8052;0.2342;0.0132;-0.0672;0.06;0.16;0.09;51.1;-19.19;3.75;-27.12;78.49;0.09;0.96;5.0;32.633;;;;NaN;;;;0 / 0;252;2022-11-17 13:44:58:428
0.0861;0.0199;9.7478;-0.1655;-0.0132;9.8052;0.2342;0.0132;-0.0672;0.06;0.16;0.09;51.1;-19.19;3.75;-27.12;78.49;0.09;0.96;5.0;32.633;;;;NaN;;;;0 / 0;263;2022-11-17 13:44:58:439
0.0861;0.0199;9.7478;-0.1655;-0.0132;9.8052;0.2342;0.0132;-0.0672;0.06;0.16;0.09;51.1;-19.19;3.75;-27.12;78.49;0.09;0.96;5.0;32.633;;;;NaN;;;;0 / 0;273;2022-11-17 13:44:58:449
0.0861;0.0199;9.7478;-0.1655;-0.0132;9.8052;0.2342;0.0132;-0.0672;0.06;0.16;0.09;51.1;-19.19;3.75;-27.12;78.49;0.09;0.96;5.0;32.633;;;;NaN;;;;0 / 0;282;2022-11-17 13:44:58:458
0.0861;0.0199;9.7478;-0.1655;-0.0132;9.8052;0.2342;0.0132;-0.0672;0.06;0.16;0.09;51.1;-19.19;3.75;-27.12;78.49;0.09;0.96;5.0;32.633;;;;NaN;;;;0 / 0;292;2022-11-17 13:44:58:468
0.0861;0.0199;9.7478;-0.1655;-0.0132;9.8052;0.2342;0.0132;-0.0672;0.06;0.16;0.09;51.1;-19.19;3.75;-27.12;78.49;0.09;0.96;5.0;32.633;;;;NaN;;;;0 / 0;302;2022-11-17 13:44:58:478
0.0861;0.0199;9.7478;-0.1655;-0.0132;9.8052;0.2342;0.0132;-0.0672;0.06;0.16;0.09;51.1;-19.62;4.31;-27.37;79.03;0.08;0.97;5.0;32.633;;;;NaN;;;;0 / 0;313;2022-11-17 13:44:58:489
0.0861;0.0199;9.7478;-0.1655;-0.0132;9.8052;0.2342;0.0132;-0.0672;0.06;0.16;0.09;51.1;-19.62;4.31;-27.37;79.03;0.08;0.97;5.0;32.633;;;;NaN;;;;0 / 0;322;2022-11-17 13:44:58:498
0.0861;0.0199;9.7478;-0.1655;-0.0132;9.8052;0.2342;0.0132;-0.0672;0.06;0.16;0.09;51.1;-19.62;4.31;-27.37;79.03;0.08;0.97;5.0;31.612;;;;NaN;;;;0 / 0;332;2022-11-17 13:44:58:508
0.0624;0.0128;9.7543;-0.1655;-0.0132;9.8052;0.2342;0.0132;-0.0672;0.12;0.22;0.12;51.1;-19.62;4.31;-27.37;79.03;0.08;0.97;5.0;31.612;;;;NaN;;;;0 / 0;342;2022-11-17 13:44:58:518
0.0624;0.0128;9.7543;-0.1676;-0.0114;9.8052;0.2264;0.0114;-0.0672;0.12;0.22;0.12;51.1;-19.62;4.31;-27.37;79.03;0.08;0.97;5.0;31.612;;;;NaN;;;;0 / 0;352;2022-11-17 13:44:58:528
0.0624;0.0128;9.7543;-0.1676;-0.0114;9.8052;0.2264;0.0114;-0.0672;0.12;0.22;0.12;51.1;-19.62;4.31;-27.37;79.03;0.08;0.97;5.0;31.612;;;;NaN;;;;0 / 0;362;2022-11-17 13:44:58:538
0.0624;0.0128;9.7543;-0.1676;-0.0114;9.8052;0.2264;0.0114;-0.0672;0.12;0.22;0.12;51.1;-19.62;4.31;-27.37;79.03;0.08;0.97;5.0;31.612;;;;NaN;;;;0 / 0;372;2022-11-17 13:44:58:548
0.0624;0.0128;9.7543;-0.1676;-0.0114;9.8052;0.2264;0.0114;-0.0672;0.12;0.22;0.12;51.1;-19.62;4.31;-27.37;79.03;0.08;0.97;5.0;31.612;;;;NaN;;;;0 / 0;382;2022-11-17 13:44:58:558
0.0624;0.0128;9.7543;-0.1676;-0.0114;9.8052;0.2264;0.0114;-0.0672;0.12;0.22;0.12;51.1;-19.62;4.31;-27.37;79.03;0.08;0.97;5.0;31.612;;;;NaN;;;;0 / 0;393;2022-11-17 13:44:58:569
0.0624;0.0128;9.7543;-0.1676;-0.0114;9.8052;0.2264;0.0114;-0.0672;0.12;0.22;0.12;51.1;-19.62;4.31;-27.37;79.03;0.08;0.97;5.0;31.612;;;;NaN;;;;0 / 0;402;2022-11-17 13:44:58:578
0.0624;0.0128;9.7543;-0.1676;-0.0114;9.8052;0.2264;0.0114;-0.0672;0.12;0.22;0.12;51.1;-19.62;4.31;-27.37;79.03;0.08;0.97;5.0;31.612;;;;NaN;;;;0 / 0;412;2022-11-17 13:44:58:588
0.0624;0.0128;9.7543;-0.1676;-0.0114;9.8052;0.2264;0.0114;-0.0672;0.12;0.22;0.12;51.1;-19.62;4.31;-27.37;79.03;0.08;0.97;5.0;31.612;;;;NaN;;;;0 / 0;422;2022-11-17 13:44:58:598
0.0624;0.0128;9.7543;-0.1676;-0.0114;9.8052;0.2264;0.0114;-0.0672;0.12;0.22;0.12;51.1;-19.62;4.13;-27.75;79.03;0.07;0.98;5.0;31.612;;;;NaN;;;;0 / 0;432;2022-11-17 13:44:58:608
0.0624;0.0128;9.7543;-0.1676;-0.0114;9.8052;0.2264;0.0114;-0.0672;0.12;0.22;0.12;51.1;-19.62;4.13;-27.75;79.03;0.07;0.98;5.0;31.612;;;;NaN;;;;0 / 0;442;2022-11-17 13:44:58:618
0.0624;0.0128;9.7543;-0.1698;-0.009;9.8051;0.2286;0.009;-0.0671;0.12;0.22;0.12;51.1;-19.62;4.13;-27.75;79.03;0.07;0.98;5.0;31.612;;;;NaN;;;;0 / 0;452;2022-11-17 13:44:58:628
0.0624;0.0128;9.7543;-0.1698;-0.009;9.8051;0.2286;0.009;-0.0671;0.12;0.22;0.12;51.1;-19.62;4.13;-27.75;79.03;0.07;0.98;5.0;31.612;;;;NaN;;;;0 / 0;463;2022-11-17 13:44:58:639
0.0999;0.0134;9.7449;-0.1698;-0.009;9.8051;0.2286;0.009;-0.0671;0.12;0.22;0.12;51.1;-19.62;4.13;-27.75;79.03;0.07;0.98;5.0;31.612;;;;NaN;;;;0 / 0;472;2022-11-17 13:44:58:648
0.0999;0.0134;9.7449;-0.1698;-0.009;9.8051;0.2286;0.009;-0.0671;0.18;0.22;0.09;51.1;-19.62;4.13;-27.75;79.03;0.07;0.98;5.0;31.612;;;;NaN;;;;0 / 0;482;2022-11-17 13:44:58:658
0.0999;0.0134;9.7449;-0.1698;-0.009;9.8051;0.2286;0.009;-0.0671;0.18;0.22;0.09;51.1;-19.62;4.13;-27.75;79.03;0.07;0.98;5.0;31.612;;;;NaN;;;;0 / 0;492;2022-11-17 13:44:58:668
0.0999;0.0134;9.7449;-0.1698;-0.009;9.8051;0.2286;0.009;-0.0671;0.18;0.22;0.09;51.1;-19.62;4.13;-27.75;79.03;0.07;0.98;5.0;31.612;;;;NaN;;;;0 / 0;503;2022-11-17 13:44:58:679
0.0999;0.0134;9.7449;-0.1698;-0.009;9.8051;0.2286;0.009;-0.0671;0.18;0.22;0.09;51.1;-19.62;4.13;-27.75;79.03;0.07;0.98;5.0;31.612;;;;NaN;;;;0 / 0;513;2022-11-17 13:44:58:689
0.0999;0.0134;9.7449;-0.1698;-0.009;9.8051;0.2286;0.009;-0.0671;0.18;0.22;0.09;51.1;-19.62;4.13;-27.75;79.03;0.07;0.98;5.0;31.612;;;;NaN;;;;0 / 0;522;2022-11-17 13:44:58:698
0.0999;0.0134;9.7449;-0.1698;-0.009;9.8051;0.2286;0.009;-0.0671;0.18;0.22;0.09;51.9;-19.62;4.13;-27.75;79.03;0.07;0.98;5.0;31.612;;;;NaN;;;;0 / 0;532;2022-11-17 13:44:58:708
0.0999;0.0134;9.7449;-0.1698;-0.009;9.8051;0.2286;0.009;-0.0671;0.18;0.22;0.09;51.9;-19.62;4.13;-27.75;79.03;0.07;0.98;5.0;31.612;;;;NaN;;;;0 / 0;542;2022-11-17 13:44:58:718
0.0999;0.0134;9.7449;-0.1689;-0.0047;9.8051;0.2376;0.0047;-0.0769;0.18;0.22;0.09;51.9;-19.0;3.94;-27.31;78.46;0.05;0.99;5.0;31.612;;;;NaN;;;;0 / 0;552;2022-11-17 13:44:58:728
0.0999;0.0134;9.7449;-0.1689;-0.0047;9.8051;0.2376;0.0047;-0.0769;0.18;0.22;0.09;51.9;-19.0;3.94;-27.31;78.46;0.05;0.99;5.0;31.612;;;;NaN;;;;0 / 0;562;2022-11-17 13:44:58:738
0.0999;0.0134;9.7449;-0.1689;-0.0047;9.8051;0.2376;0.0047;-0.0769;0.18;0.22;0.09;51.9;-19.0;3.94;-27.31;78.46;0.05;0.99;5.0;31.612;;;;NaN;;;;0 / 0;573;2022-11-17 13:44:58:749
0.0999;0.0134;9.7449;-0.1689;-0.0047;9.8051;0.2376;0.0047;-0.0769;0.18;0.22;0.09;51.9;-19.0;3.94;-27.31;78.46;0.05;0.99;5.0;31.612;;;;NaN;;;;0 / 0;583;2022-11-17 13:44:58:759
0.0999;0.0134;9.7449;-0.1689;-0.0047;9.8051;0.2376;0.0047;-0.0769;0.18;0.22;0.09;51.9;-19.0;3.94;-27.31;78.46;0.05;0.99;5.0;31.612;;;;NaN;;;;0 / 0;592;2022-11-17 13:44:58:768
0.0999;0.0134;9.7449;-0.1689;-0.0047;9.8051;0.2376;0.0047;-0.0769;0.18;0.22;0.09;51.9;-19.0;3.94;-27.31;78.46;0.05;0.99;5.0;31.612;;;;NaN;;;;0 / 0;602;2022-11-17 13:44:58:778
0.0854;0.0106;9.744;-0.1689;-0.0047;9.8051;0.2376;0.0047;-0.0769;-0.25;-0.54;0.12;51.9;-19.0;3.94;-27.31;78.46;0.05;0.99;5.0;31.612;;;;NaN;;;;0 / 0;613;2022-11-17 13:44:58:789
0.0854;0.0106;9.744;-0.1689;-0.0047;9.8051;0.2376;0.0047;-0.0769;-0.25;-0.54;0.12;51.9;-19.0;3.94;-27.31;78.46;0.05;0.99;5.0;31.612;;;;NaN;;;;0 / 0;623;2022-11-17 13:44:58:799
0.0854;0.0106;9.744;-0.1689;-0.0047;9.8051;0.2376;0.0047;-0.0769;-0.25;-0.54;0.12;51.9;-19.0;3.94;-27.31;78.46;0.05;0.99;5.0;31.612;;;;NaN;;;;0 / 0;633;2022-11-17 13:44:58:809
0.0854;0.0106;9.744;-0.1689;-0.0047;9.8051;0.2376;0.0047;-0.0769;-0.25;-0.54;0.12;51.9;-19.0;3.94;-27.31;78.46;0.05;0.99;5.0;31.612;;;;NaN;;;;0 / 0;643;2022-11-17 13:44:58:819
0.0854;0.0106;9.744;-0.1677;-8.0E-4;9.8052;0.2265;8.0E-4;-0.0966;-0.25;-0.54;0.12;51.9;-19.0;3.94;-27.31;78.46;0.05;0.99;5.0;31.611;;;;NaN;;;;0 / 0;652;2022-11-17 13:44:58:828
0.0854;0.0106;9.744;-0.1677;-8.0E-4;9.8052;0.2265;8.0E-4;-0.0966;-0.25;-0.54;0.12;51.9;-19.0;3.94;-27.31;78.46;0.05;0.99;5.0;31.611;;;;NaN;;;;0 / 0;662;2022-11-17 13:44:58:838
0.0854;0.0106;9.744;-0.1677;-8.0E-4;9.8052;0.2265;8.0E-4;-0.0966;-0.25;-0.54;0.12;51.9;-18.87;4.13;-27.19;78.39;0.0;0.98;5.0;31.611;;;;NaN;;;;0 / 0;672;2022-11-17 13:44:58:848
0.0854;0.0106;9.744;-0.1677;-8.0E-4;9.8052;0.2265;8.0E-4;-0.0966;-0.25;-0.54;0.12;51.9;-18.87;4.13;-27.19;78.39;0.0;0.98;5.0;31.611;;;;NaN;;;;0 / 0;682;2022-11-17 13:44:58:858
0.0854;0.0106;9.744;-0.1677;-8.0E-4;9.8052;0.2265;8.0E-4;-0.0966;-0.25;-0.54;0.12;51.9;-18.87;4.13;-27.19;78.39;0.0;0.98;5.0;31.611;;;;NaN;;;;0 / 0;692;2022-11-17 13:44:58:868
0.0854;0.0106;9.744;-0.1677;-8.0E-4;9.8052;0.2265;8.0E-4;-0.0966;-0.25;-0.54;0.12;51.9;-18.87;4.13;-27.19;78.39;0.0;0.98;5.0;31.611;;;;NaN;;;;0 / 0;702;2022-11-17 13:44:58:878
0.0854;0.0106;9.744;-0.1677;-8.0E-4;9.8052;0.2265;8.0E-4;-0.0966;-0.25;-0.54;0.12;51.9;-18.87;4.13;-27.19;78.39;0.0;0.98;5.0;31.611;;;;NaN;;;;0 / 0;712;2022-11-17 13:44:58:888
0.0854;0.0106;9.744;-0.1677;-8.0E-4;9.8052;0.2265;8.0E-4;-0.0966;-0.25;-0.54;0.12;51.9;-18.87;4.13;-27.19;78.39;0.0;0.98;5.0;31.611;;;;NaN;;;;0 / 0;723;2022-11-17 13:44:58:899
0.0854;0.0106;9.744;-0.1677;-8.0E-4;9.8052;0.2265;8.0E-4;-0.0966;-0.25;-0.54;0.12;51.9;-18.87;4.13;-27.19;78.39;0.0;0.98;5.0;31.611;;;;NaN;;;;0 / 0;732;2022-11-17 13:44:58:908
0.0768;0.0292;9.7483;-0.1677;-8.0E-4;9.8052;0.2265;8.0E-4;-0.0966;0.09;0.16;0.12;51.9;-18.87;4.13;-27.19;78.39;0.0;0.98;5.0;31.611;;;;NaN;;;;0 / 0;742;2022-11-17 13:44:58:918
0.0768;0.0292;9.7483;-0.1653;0.0022;9.8052;0.2437;0.0174;-0.0574;0.09;0.16;0.12;51.9;-18.87;4.13;-27.19;78.39;0.0;0.98;5.0;31.611;;;;NaN;;;;0 / 0;752;2022-11-17 13:44:58:928
0.0768;0.0292;9.7483;-0.1653;0.0022;9.8052;0.2437;0.0174;-0.0574;0.09;0.16;0.12;51.9;-18.87;4.13;-27.19;78.39;0.0;0.98;5.0;31.611;;;;NaN;;;;0 / 0;762;2022-11-17 13:44:58:938
0.0768;0.0292;9.7483;-0.1653;0.0022;9.8052;0.2437;0.0174;-0.0574;0.09;0.16;0.12;51.9;-18.87;4.13;-27.19;78.39;0.0;0.98;5.0;31.611;;;;NaN;;;;0 / 0;773;2022-11-17 13:44:58:949
0.0768;0.0292;9.7483;-0.1653;0.0022;9.8052;0.2437;0.0174;-0.0574;0.09;0.16;0.12;51.9;-18.87;4.13;-27.19;78.39;0.0;0.98;5.0;31.611;;;;NaN;;;;0 / 0;783;2022-11-17 13:44:58:959
0.0768;0.0292;9.7483;-0.1653;0.0022;9.8052;0.2437;0.0174;-0.0574;0.09;0.16;0.12;51.9;-19.56;4.0;-27.44;78.92;-0.01;0.97;5.0;31.611;;;;NaN;;;;0 / 0;792;2022-11-17 13:44:58:968
0.0768;0.0292;9.7483;-0.1653;0.0022;9.8052;0.2437;0.0174;-0.0574;0.09;0.16;0.12;51.9;-19.56;4.0;-27.44;78.92;-0.01;0.97;5.0;31.611;;;;NaN;;;;0 / 0;802;2022-11-17 13:44:58:978
0.0768;0.0292;9.7483;-0.1653;0.0022;9.8052;0.2437;0.0174;-0.0574;0.09;0.16;0.12;51.9;-19.56;4.0;-27.44;78.92;-0.01;0.97;5.0;31.611;;;;NaN;;;;0 / 0;812;2022-11-17 13:44:58:988
0.0768;0.0292;9.7483;-0.1653;0.0022;9.8052;0.2437;0.0174;-0.0574;0.09;0.16;0.12;51.9;-19.56;4.0;-27.44;78.92;-0.01;0.97;5.0;31.611;;;;NaN;;;;0 / 0;823;2022-11-17 13:44:58:999
0.0768;0.0292;9.7483;-0.1653;0.0022;9.8052;0.2437;0.0174;-0.0574;0.09;0.16;0.12;51.9;-19.56;4.0;-27.44;78.92;-0.01;0.97;5.0;31.611;;;;NaN;;;;0 / 0;833;2022-11-17 13:44:59:009
0.0768;0.0292;9.7483;-0.1653;0.0022;9.8052;0.2437;0.0174;-0.0574;0.09;0.16;0.12;51.9;-19.56;4.0;-27.44;78.92;-0.01;0.97;5.0;31.611;;;;NaN;;;;0 / 0;842;2022-11-17 13:44:59:018
0.0768;0.0292;9.7483;-0.1653;0.0049;9.8052;0.2339;-0.0049;-0.077;0.09;0.16;0.12;51.9;-19.56;4.0;-27.44;78.92;-0.01;0.97;5.0;31.611;;;;NaN;;;;0 / 0;852;2022-11-17 13:44:59:028
0.0768;0.0292;9.7483;-0.1653;0.0049;9.8052;0.2339;-0.0049;-0.077;0.09;0.16;0.12;51.9;-19.56;4.0;-27.44;78.92;-0.01;0.97;5.0;31.611;;;;NaN;;;;0 / 0;862;2022-11-17 13:44:59:038
0.0804;0.0092;9.744;-0.1653;0.0049;9.8052;0.2339;-0.0049;-0.077;0.06;0.19;0.09;51.9;-19.56;4.0;-27.44;78.92;-0.01;0.97;5.0;31.611;;;;NaN;;;;0 / 0;873;2022-11-17 13:44:59:049
0.0804;0.0092;9.744;-0.1653;0.0049;9.8052;0.2339;-0.0049;-0.077;0.06;0.19;0.09;52.7;-19.56;4.0;-27.44;78.92;-0.01;0.97;5.0;31.611;;;;NaN;;;;0 / 0;883;2022-11-17 13:44:59:059
0.0804;0.0092;9.744;-0.1653;0.0049;9.8052;0.2339;-0.0049;-0.077;0.06;0.19;0.09;52.7;-19.56;4.0;-27.44;78.92;-0.01;0.97;5.0;31.611;;;;NaN;;;;0 / 0;892;2022-11-17 13:44:59:068
0.0804;0.0092;9.744;-0.1653;0.0049;9.8052;0.2339;-0.0049;-0.077;0.06;0.19;0.09;52.7;-19.56;4.0;-27.44;78.92;-0.01;0.97;5.0;31.611;;;;NaN;;;;0 / 0;902;2022-11-17 13:44:59:078
0.0804;0.0092;9.744;-0.1653;0.0049;9.8052;0.2339;-0.0049;-0.077;0.06;0.19;0.09;52.7;-19.25;4.13;-27.31;78.34;-0.03;0.97;5.0;31.611;;;;NaN;;;;0 / 0;912;2022-11-17 13:44:59:088
0.0804;0.0092;9.744;-0.1653;0.0049;9.8052;0.2339;-0.0049;-0.077;0.06;0.19;0.09;52.7;-19.25;4.13;-27.31;78.34;-0.03;0.97;5.0;31.611;;;;NaN;;;;0 / 0;923;2022-11-17 13:44:59:099
0.0804;0.0092;9.744;-0.1653;0.0049;9.8052;0.2339;-0.0049;-0.077;0.06;0.19;0.09;52.7;-19.25;4.13;-27.31;78.34;-0.03;0.97;5.0;31.611;;;;NaN;;;;0 / 0;932;2022-11-17 13:44:59:108
0.0804;0.0092;9.744;-0.1653;0.0049;9.8052;0.2339;-0.0049;-0.077;0.06;0.19;0.09;52.7;-19.25;4.13;-27.31;78.34;-0.03;0.97;5.0;31.611;;;;NaN;;;;0 / 0;943;2022-11-17 13:44:59:119
0.0804;0.0092;9.744;-0.1635;0.0068;9.8052;0.2321;0.003;-0.077;0.06;0.19;0.09;52.7;-19.25;4.13;-27.31;78.34;-0.03;0.97;5.0;31.611;;;;NaN;;;;0 / 0;952;2022-11-17 13:44:59:128
0.0804;0.0092;9.744;-0.1635;0.0068;9.8052;0.2321;0.003;-0.077;0.06;0.19;0.09;52.7;-19.25;4.13;-27.31;78.34;-0.03;0.97;5.0;31.611;;;;NaN;;;;0 / 0;963;2022-11-17 13:44:59:139
0.0804;0.0092;9.744;-0.1635;0.0068;9.8052;0.2321;0.003;-0.077;0.06;0.19;0.09;52.7;-19.25;4.13;-27.31;78.34;-0.03;0.97;5.0;32.982;;;;NaN;;;;0 / 0;973;2022-11-17 13:44:59:149
0.0804;0.0092;9.744;-0.1635;0.0068;9.8052;0.2321;0.003;-0.077;0.06;0.19;0.09;52.7;-19.25;4.13;-27.31;78.34;-0.03;0.97;5.0;32.982;;;;NaN;;;;0 / 0;983;2022-11-17 13:44:59:159
0.0804;0.0092;9.744;-0.1635;0.0068;9.8052;0.2321;0.003;-0.077;0.06;0.19;0.09;52.7;-19.25;4.13;-27.31;78.34;-0.03;0.97;5.0;32.982;;;;NaN;;;;0 / 0;992;2022-11-17 13:44:59:168
0.092;0.0179;9.7393;-0.1635;0.0068;9.8052;0.2321;0.003;-0.077;0.12;0.22;0.15;52.7;-19.25;4.13;-27.31;78.34;-0.03;0.97;5.0;32.982;;;;NaN;;;;0 / 0;1002;2022-11-17 13:44:59:178
0.092;0.0179;9.7393;-0.1635;0.0068;9.8052;0.2321;0.003;-0.077;0.12;0.22;0.15;52.7;-19.25;4.13;-27.31;78.34;-0.03;0.97;5.0;32.982;;;;NaN;;;;0 / 0;1012;2022-11-17 13:44:59:188
0.092;0.0179;9.7393;-0.1635;0.0068;9.8052;0.2321;0.003;-0.077;0.12;0.22;0.15;52.7;-19.25;4.13;-27.31;78.34;-0.03;0.97;5.0;32.982;;;;NaN;;;;0 / 0;1023;2022-11-17 13:44:59:199
0.092;0.0179;9.7393;-0.1635;0.0068;9.8052;0.2321;0.003;-0.077;0.12;0.22;0.15;52.7;-19.56;4.38;-27.31;78.88;-0.04;0.96;5.0;32.982;;;;NaN;;;;0 / 0;1032;2022-11-17 13:44:59:208
0.092;0.0179;9.7393;-0.1635;0.0068;9.8052;0.2321;0.003;-0.077;0.12;0.22;0.15;52.7;-19.56;4.38;-27.31;78.88;-0.04;0.96;5.0;32.982;;;;NaN;;;;0 / 0;1043;2022-11-17 13:44:59:219
0.092;0.0179;9.7393;-0.1627;0.0091;9.8052;0.2216;-0.0091;-0.0672;0.12;0.22;0.15;52.7;-19.56;4.38;-27.31;78.88;-0.04;0.96;5.0;32.982;;;;NaN;;;;0 / 0;1054;2022-11-17 13:44:59:230
0.092;0.0179;9.7393;-0.1627;0.0091;9.8052;0.2216;-0.0091;-0.0672;0.12;0.22;0.15;52.7;-19.56;4.38;-27.31;78.88;-0.04;0.96;5.0;32.982;;;;NaN;;;;0 / 0;1062;2022-11-17 13:44:59:238
0.092;0.0179;9.7393;-0.1627;0.0091;9.8052;0.2216;-0.0091;-0.0672;0.12;0.22;0.15;52.7;-19.56;4.38;-27.31;78.88;-0.04;0.96;5.0;32.982;;;;NaN;;;;0 / 0;1073;2022-11-17 13:44:59:249
0.092;0.0179;9.7393;-0.1627;0.0091;9.8052;0.2216;-0.0091;-0.0672;0.12;0.22;0.15;52.7;-19.56;4.38;-27.31;78.88;-0.04;0.96;5.0;32.982;;;;NaN;;;;0 / 0;1083;2022-11-17 13:44:59:259
0.092;0.0179;9.7393;-0.1627;0.0091;9.8052;0.2216;-0.0091;-0.0672;0.12;0.22;0.15;52.7;-19.56;4.38;-27.31;78.88;-0.04;0.96;5.0;32.982;;;;NaN;;;;0 / 0;1092;2022-11-17 13:44:59:268
0.092;0.0179;9.7393;-0.1627;0.0091;9.8052;0.2216;-0.0091;-0.0672;0.12;0.22;0.15;52.7;-19.56;4.38;-27.31;78.88;-0.04;0.96;5.0;32.982;;;;NaN;;;;0 / 0;1103;2022-11-17 13:44:59:279
0.092;0.0179;9.7393;-0.1627;0.0091;9.8052;0.2216;-0.0091;-0.0672;0.12;0.22;0.15;52.7;-19.56;4.38;-27.31;78.88;-0.04;0.96;5.0;32.982;;;;NaN;;;;0 / 0;1112;2022-11-17 13:44:59:288
0.092;0.0179;9.7393;-0.1627;0.0091;9.8052;0.2216;-0.0091;-0.0672;0.12;0.22;0.15;52.7;-19.56;4.38;-27.31;78.88;-0.04;0.96;5.0;32.982;;;;NaN;;;;0 / 0;1122;2022-11-17 13:44:59:298
0.0929;0.0428;9.7345;-0.1627;0.0091;9.8052;0.2216;-0.0091;-0.0672;0.12;0.22;0.15;52.7;-19.56;4.38;-27.31;78.88;-0.04;0.96;5.0;32.982;;;;NaN;;;;0 / 0;1133;2022-11-17 13:44:59:309
0.0929;0.0428;9.7345;-0.1627;0.0091;9.8052;0.2216;-0.0091;-0.0672;0.03;0.22;0.12;52.7;-19.56;4.38;-27.31;78.88;-0.04;0.96;5.0;32.982;;;;NaN;;;;0 / 0;1142;2022-11-17 13:44:59:318
0.0929;0.0428;9.7345;-0.1622;0.0121;9.8053;0.2406;-0.0023;-0.0672;0.03;0.22;0.12;52.7;-19.31;4.44;-27.06;78.31;-0.05;0.95;5.0;32.982;;;;NaN;;;;0 / 0;1152;2022-11-17 13:44:59:328
0.0929;0.0428;9.7345;-0.1622;0.0121;9.8053;0.2406;-0.0023;-0.0672;0.03;0.22;0.12;52.7;-19.31;4.44;-27.06;78.31;-0.05;0.95;5.0;32.982;;;;NaN;;;;0 / 0;1162;2022-11-17 13:44:59:338
0.0929;0.0428;9.7345;-0.1622;0.0121;9.8053;0.2406;-0.0023;-0.0672;0.03;0.22;0.12;52.7;-19.31;4.44;-27.06;78.31;-0.05;0.95;5.0;32.982;;;;NaN;;;;0 / 0;1172;2022-11-17 13:44:59:348
0.0929;0.0428;9.7345;-0.1622;0.0121;9.8053;0.2406;-0.0023;-0.0672;0.03;0.22;0.12;52.7;-19.31;4.44;-27.06;78.31;-0.05;0.95;5.0;32.982;;;;NaN;;;;0 / 0;1182;2022-11-17 13:44:59:358
0.0929;0.0428;9.7345;-0.1622;0.0121;9.8053;0.2406;-0.0023;-0.0672;0.03;0.22;0.12;52.7;-19.31;4.44;-27.06;78.31;-0.05;0.95;5.0;32.982;;;;NaN;;;;0 / 0;1193;2022-11-17 13:44:59:369
0.0929;0.0428;9.7345;-0.1622;0.0121;9.8053;0.2406;-0.0023;-0.0672;0.03;0.22;0.12;52.7;-19.31;4.44;-27.06;78.31;-0.05;0.95;5.0;32.982;;;;NaN;;;;0 / 0;1203;2022-11-17 13:44:59:379
0.0929;0.0428;9.7345;-0.1622;0.0121;9.8053;0.2406;-0.0023;-0.0672;0.03;0.22;0.12;52.7;-19.31;4.44;-27.06;78.31;-0.05;0.95;5.0;32.982;;;;NaN;;;;0 / 0;1213;2022-11-17 13:44:59:389
0.0929;0.0428;9.7345;-0.1622;0.0121;9.8053;0.2406;-0.0023;-0.0672;0.03;0.22;0.12;52.7;-19.31;4.44;-27.06;78.31;-0.05;0.95;5.0;32.982;;;;NaN;;;;0 / 0;1222;2022-11-17 13:44:59:398
0.0929;0.0428;9.7345;-0.1622;0.0121;9.8053;0.2406;-0.0023;-0.0672;0.03;0.22;0.12;53.5;-19.31;4.44;-27.06;78.31;-0.05;0.95;5.0;32.982;;;;NaN;;;;0 / 0;1233;2022-11-17 13:44:59:409
0.0929;0.0428;9.7345;-0.1622;0.0121;9.8053;0.2406;-0.0023;-0.0672;0.03;0.22;0.12;53.5;-19.31;4.44;-27.06;78.31;-0.05;0.95;5.0;32.982;;;;NaN;;;;0 / 0;1243;2022-11-17 13:44:59:419
0.0929;0.0428;9.7345;-0.1624;0.015;9.8052;0.2212;-0.015;-0.0672;0.03;0.22;0.12;53.5;-19.31;4.44;-27.06;78.31;-0.05;0.95;5.0;32.982;;;;NaN;;;;0 / 0;1253;2022-11-17 13:44:59:429
0.0929;0.0428;9.7345;-0.1624;0.015;9.8052;0.2212;-0.015;-0.0672;0.03;0.22;0.12;53.5;-19.31;4.44;-27.06;78.31;-0.05;0.95;5.0;32.982;;;;NaN;;;;0 / 0;1262;2022-11-17 13:44:59:438
0.087;0.0214;9.7509;-0.1624;0.015;9.8052;0.2212;-0.015;-0.0672;0.06;0.22;0.06;53.5;-19.5;4.0;-27.81;78.27;-0.09;0.95;5.0;32.982;;;;NaN;;;;0 / 0;1272;2022-11-17 13:44:59:448
0.087;0.0214;9.7509;-0.1624;0.015;9.8052;0.2212;-0.015;-0.0672;0.06;0.22;0.06;53.5;-19.5;4.0;-27.81;78.27;-0.09;0.95;5.0;32.982;;;;NaN;;;;0 / 0;1282;2022-11-17 13:44:59:458
0.087;0.0214;9.7509;-0.1624;0.015;9.8052;0.2212;-0.015;-0.0672;0.06;0.22;0.06;53.5;-19.5;4.0;-27.81;78.27;-0.09;0.95;5.0;35.021;;;;NaN;;;;0 / 0;1293;2022-11-17 13:44:59:469
0.087;0.0214;9.7509;-0.1624;0.015;9.8052;0.2212;-0.015;-0.0672;0.06;0.22;0.06;53.5;-19.5;4.0;-27.81;78.27;-0.09;0.95;5.0;35.021;;;;NaN;;;;0 / 0;1303;2022-11-17 13:44:59:479
0.087;0.0214;9.7509;-0.1624;0.015;9.8052;0.2212;-0.015;-0.0672;0.06;0.22;0.06;53.5;-19.5;4.0;-27.81;78.27;-0.09;0.95;5.0;35.021;;;;NaN;;;;0 / 0;1313;2022-11-17 13:44:59:489
0.087;0.0214;9.7509;-0.1624;0.015;9.8052;0.2212;-0.015;-0.0672;0.06;0.22;0.06;53.5;-19.5;4.0;-27.81;78.27;-0.09;0.95;5.0;35.021;;;;NaN;;;;0 / 0;1323;2022-11-17 13:44:59:499
0.087;0.0214;9.7509;-0.1624;0.015;9.8052;0.2212;-0.015;-0.0672;0.06;0.22;0.06;53.5;-19.5;4.0;-27.81;78.27;-0.09;0.95;5.0;35.021;;;;NaN;;;;0 / 0;1332;2022-11-17 13:44:59:508
0.087;0.0214;9.7509;-0.1624;0.015;9.8052;0.2212;-0.015;-0.0672;0.06;0.22;0.06;53.5;-19.5;4.0;-27.81;78.27;-0.09;0.95;5.0;35.021;;;;NaN;;;;0 / 0;1342;2022-11-17 13:44:59:518
0.087;0.0214;9.7509;-0.1624;0.018;9.8052;0.2409;-0.018;-0.0672;0.06;0.22;0.06;53.5;-19.5;4.0;-27.81;78.27;-0.09;0.95;5.0;35.021;;;;NaN;;;;0 / 0;1353;2022-11-17 13:44:59:529
0.087;0.0214;9.7509;-0.1624;0.018;9.8052;0.2409;-0.018;-0.0672;0.06;0.22;0.06;53.5;-19.5;4.0;-27.81;78.27;-0.09;0.95;5.0;35.021;;;;NaN;;;;0 / 0;1362;2022-11-17 13:44:59:538
0.087;0.0214;9.7509;-0.1624;0.018;9.8052;0.2409;-0.018;-0.0672;0.06;0.22;0.06;53.5;-19.5;4.0;-27.81;78.27;-0.09;0.95;5.0;35.021;;;;NaN;;;;0 / 0;1373;2022-11-17 13:44:59:549
0.087;0.0214;9.7509;-0.1624;0.018;9.8052;0.2409;-0.018;-0.0672;0.06;0.22;0.06;53.5;-19.5;4.0;-27.81;78.27;-0.09;0.95;5.0;35.021;;;;NaN;;;;0 / 0;1382;2022-11-17 13:44:59:558
0.087;0.0214;9.7509;-0.1624;0.018;9.8052;0.2409;-0.018;-0.0672;0.06;0.22;0.06;53.5;-19.37;4.38;-27.69;78.24;-0.11;0.95;5.0;35.021;;;;NaN;;;;0 / 0;1392;2022-11-17 13:44:59:568
0.0655;0.0143;9.7446;-0.1624;0.018;9.8052;0.2409;-0.018;-0.0672;0.12;0.25;0.06;53.5;-19.37;4.38;-27.69;78.24;-0.11;0.95;5.0;35.021;;;;NaN;;;;0 / 0;1403;2022-11-17 13:44:59:579
0.0655;0.0143;9.7446;-0.1624;0.018;9.8052;0.2409;-0.018;-0.0672;0.12;0.25;0.06;53.5;-19.37;4.38;-27.69;78.24;-0.11;0.95;5.0;35.021;;;;NaN;;;;0 / 0;1412;2022-11-17 13:44:59:588
0.0655;0.0143;9.7446;-0.1624;0.018;9.8052;0.2409;-0.018;-0.0672;0.12;0.25;0.06;53.5;-19.37;4.38;-27.69;78.24;-0.11;0.95;5.0;35.021;;;;NaN;;;;0 / 0;1423;2022-11-17 13:44:59:599
0.0655;0.0143;9.7446;-0.1624;0.018;9.8052;0.2409;-0.018;-0.0672;0.12;0.25;0.06;53.5;-19.37;4.38;-27.69;78.24;-0.11;0.95;5.0;35.021;;;;NaN;;;;0 / 0;1432;2022-11-17 13:44:59:608
0.0655;0.0143;9.7446;-0.1624;0.018;9.8052;0.2409;-0.018;-0.0672;0.12;0.25;0.06;53.5;-19.37;4.38;-27.69;78.24;-0.11;0.95;5.0;35.021;;;;NaN;;;;0 / 0;1442;2022-11-17 13:44:59:618
0.0655;0.0143;9.7446;-0.1624;0.021;9.8052;0.2507;-0.0112;-0.077;0.12;0.25;0.06;53.5;-19.37;4.38;-27.69;78.24;-0.11;0.95;5.0;35.021;;;;NaN;;;;0 / 0;1453;2022-11-17 13:44:59:629
0.0655;0.0143;9.7446;-0.1624;0.021;9.8052;0.2507;-0.0112;-0.077;0.12;0.25;0.06;53.5;-19.37;4.38;-27.69;78.24;-0.11;0.95;5.0;35.021;;;;NaN;;;;0 / 0;1463;2022-11-17 13:44:59:639
0.0655;0.0143;9.7446;-0.1624;0.021;9.8052;0.2507;-0.0112;-0.077;0.12;0.25;0.06;53.5;-19.37;4.38;-27.69;78.24;-0.11;0.95;5.0;35.021;;;;NaN;;;;0 / 0;1472;2022-11-17 13:44:59:648
0.0655;0.0143;9.7446;-0.1624;0.021;9.8052;0.2507;-0.0112;-0.077;0.12;0.25;0.06;53.5;-19.37;4.38;-27.69;78.24;-0.11;0.95;5.0;35.021;;;;NaN;;;;0 / 0;1483;2022-11-17 13:44:59:659
0.0655;0.0143;9.7446;-0.1624;0.021;9.8052;0.2507;-0.0112;-0.077;0.12;0.25;0.06;53.5;-19.37;4.38;-27.69;78.24;-0.11;0.95;5.0;35.021;;;;NaN;;;;0 / 0;1492;2022-11-17 13:44:59:668
0.0655;0.0143;9.7446;-0.1624;0.021;9.8052;0.2507;-0.0112;-0.077;0.12;0.25;0.06;53.5;-19.37;4.38;-27.69;78.24;-0.11;0.95;5.0;35.021;;;;NaN;;;;0 / 0;1502;2022-11-17 13:44:59:678
0.0655;0.0143;9.7446;-0.1624;0.021;9.8052;0.2507;-0.0112;-0.077;0.12;0.25;0.06;53.5;-19.56;4.31;-28.0;78.78;-0.12;0.95;5.0;35.021;;;;NaN;;;;0 / 0;1512;2022-11-17 13:44:59:688
0.0655;0.0143;9.7446;-0.1624;0.021;9.8052;0.2507;-0.0112;-0.077;0.12;0.25;0.06;53.5;-19.56;4.31;-28.0;78.78;-0.12;0.95;5.0;35.021;;;;NaN;;;;0 / 0;1523;2022-11-17 13:44:59:699
0.0739;0.0138;9.7456;-0.1624;0.021;9.8052;0.2507;-0.0112;-0.077;0.09;0.28;0.09;53.5;-19.56;4.31;-28.0;78.78;-0.12;0.95;5.0;35.021;;;;NaN;;;;0 / 0;1532;2022-11-17 13:44:59:708
0.0739;0.0138;9.7456;-0.1624;0.021;9.8052;0.2507;-0.0112;-0.077;0.09;0.28;0.09;53.5;-19.56;4.31;-28.0;78.78;-0.12;0.95;5.0;35.021;;;;NaN;;;;0 / 0;1543;2022-11-17 13:44:59:719
0.0739;0.0138;9.7456;-0.1628;0.0242;9.8052;0.2314;-0.0144;-0.0574;0.09;0.28;0.09;53.5;-19.56;4.31;-28.0;78.78;-0.12;0.95;5.0;35.021;;;;NaN;;;;0 / 0;1553;2022-11-17 13:44:59:729
0.0739;0.0138;9.7456;-0.1628;0.0242;9.8052;0.2314;-0.0144;-0.0574;0.09;0.28;0.09;53.5;-19.56;4.31;-28.0;78.78;-0.12;0.95;5.0;35.021;;;;NaN;;;;0 / 0;1562;2022-11-17 13:44:59:738
0.0739;0.0138;9.7456;-0.1628;0.0242;9.8052;0.2314;-0.0144;-0.0574;0.09;0.28;0.09;53.5;-19.56;4.31;-28.0;78.78;-0.12;0.95;5.0;35.021;;;;NaN;;;;0 / 0;1572;2022-11-17 13:44:59:748
0.0739;0.0138;9.7456;-0.1628;0.0242;9.8052;0.2314;-0.0144;-0.0574;0.09;0.28;0.09;54.5;-19.56;4.31;-28.0;78.78;-0.12;0.95;5.0;35.021;;;;NaN;;;;0 / 0;1582;2022-11-17 13:44:59:758
0.0739;0.0138;9.7456;-0.1628;0.0242;9.8052;0.2314;-0.0144;-0.0574;0.09;0.28;0.09;54.5;-19.56;4.31;-28.0;78.78;-0.12;0.95;5.0;35.021;;;;NaN;;;;0 / 0;1592;2022-11-17 13:44:59:768
0.0739;0.0138;9.7456;-0.1628;0.0242;9.8052;0.2314;-0.0144;-0.0574;0.09;0.28;0.09;54.5;-19.56;4.31;-28.0;78.78;-0.12;0.95;5.0;35.021;;;;NaN;;;;0 / 0;1603;2022-11-17 13:44:59:779
0.0739;0.0138;9.7456;-0.1628;0.0242;9.8052;0.2314;-0.0144;-0.0574;0.09;0.28;0.09;54.5;-19.56;4.31;-28.0;78.78;-0.12;0.95;5.0;35.021;;;;NaN;;;;0 / 0;1612;2022-11-17 13:44:59:788
0.0739;0.0138;9.7456;-0.1628;0.0242;9.8052;0.2314;-0.0144;-0.0574;0.09;0.28;0.09;54.5;-19.56;4.31;-28.0;78.78;-0.12;0.95;5.0;35.021;;;;NaN;;;;0 / 0;1622;2022-11-17 13:44:59:798
0.0739;0.0138;9.7456;-0.1628;0.0242;9.8052;0.2314;-0.0144;-0.0574;0.09;0.28;0.09;54.5;-19.62;4.06;-27.94;78.76;-0.14;0.95;5.0;34.681;;;;NaN;;;;0 / 0;1632;2022-11-17 13:44:59:808
0.0739;0.0138;9.7456;-0.1628;0.0242;9.8052;0.2314;-0.0144;-0.0574;0.09;0.28;0.09;54.5;-19.62;4.06;-27.94;78.76;-0.14;0.95;5.0;34.681;;;;NaN;;;;0 / 0;1643;2022-11-17 13:44:59:819
0.0739;0.0138;9.7456;-0.1626;0.0264;9.8052;0.2214;-0.0264;-0.0966;0.09;0.28;0.09;54.5;-19.62;4.06;-27.94;78.76;-0.14;0.95;5.0;34.681;;;;NaN;;;;0 / 0;1653;2022-11-17 13:44:59:829
0.0847;0.007;9.7396;-0.1626;0.0264;9.8052;0.2214;-0.0264;-0.0966;0.06;0.16;0.09;54.5;-19.62;4.06;-27.94;78.76;-0.14;0.95;5.0;34.681;;;;NaN;;;;0 / 0;1663;2022-11-17 13:44:59:839
0.0847;0.007;9.7396;-0.1626;0.0264;9.8052;0.2214;-0.0264;-0.0966;0.06;0.16;0.09;54.5;-19.62;4.06;-27.94;78.76;-0.14;0.95;5.0;34.681;;;;NaN;;;;0 / 0;1673;2022-11-17 13:44:59:849
0.0847;0.007;9.7396;-0.1626;0.0264;9.8052;0.2214;-0.0264;-0.0966;0.06;0.16;0.09;54.5;-19.62;4.06;-27.94;78.76;-0.14;0.95;5.0;34.681;;;;NaN;;;;0 / 0;1682;2022-11-17 13:44:59:858
0.0847;0.007;9.7396;-0.1626;0.0264;9.8052;0.2214;-0.0264;-0.0966;0.06;0.16;0.09;54.5;-19.62;4.06;-27.94;78.76;-0.14;0.95;5.0;34.681;;;;NaN;;;;0 / 0;1692;2022-11-17 13:44:59:868
0.0847;0.007;9.7396;-0.1626;0.0264;9.8052;0.2214;-0.0264;-0.0966;0.06;0.16;0.09;54.5;-19.62;4.06;-27.94;78.76;-0.14;0.95;5.0;34.681;;;;NaN;;;;0 / 0;1702;2022-11-17 13:44:59:878
0.0847;0.007;9.7396;-0.1626;0.0264;9.8052;0.2214;-0.0264;-0.0966;0.06;0.16;0.09;54.5;-19.62;4.06;-27.94;78.76;-0.14;0.95;5.0;34.681;;;;NaN;;;;0 / 0;1712;2022-11-17 13:44:59:888
0.0847;0.007;9.7396;-0.1626;0.0264;9.8052;0.2214;-0.0264;-0.0966;0.06;0.16;0.09;54.5;-19.62;4.06;-27.94;78.76;-0.14;0.95;5.0;34.681;;;;NaN;;;;0 / 0;1723;2022-11-17 13:44:59:899
0.0847;0.007;9.7396;-0.1626;0.0264;9.8052;0.2214;-0.0264;-0.0966;0.06;0.16;0.09;54.5;-19.62;4.06;-27.94;78.76;-0.14;0.95;5.0;34.681;;;;NaN;;;;0 / 0;1732;2022-11-17 13:44:59:908
0.0847;0.007;9.7396;-0.1626;0.0264;9.8052;0.2214;-0.0264;-0.0966;0.06;0.16;0.09;54.5;-19.62;4.06;-27.94;78.76;-0.14;0.95;5.0;34.681;;;;NaN;;;;0 / 0;1742;2022-11-17 13:44:59:918
0.0847;0.007;9.7396;-0.1631;0.0285;9.8052;0.2318;-0.0187;-0.0868;0.06;0.16;0.09;54.5;-19.62;3.88;-27.69;78.74;-0.15;0.95;5.0;34.681;;;;NaN;;;;0 / 0;1752;2022-11-17 13:44:59:928
0.0847;0.007;9.7396;-0.1631;0.0285;9.8052;0.2318;-0.0187;-0.0868;0.06;0.16;0.09;54.5;-19.62;3.88;-27.69;78.74;-0.15;0.95;5.0;34.681;;;;NaN;;;;0 / 0;1763;2022-11-17 13:44:59:939
0.0847;0.007;9.7396;-0.1631;0.0285;9.8052;0.2318;-0.0187;-0.0868;0.06;0.16;0.09;54.5;-19.62;3.88;-27.69;78.74;-0.15;0.95;5.0;34.681;;;;NaN;;;;0 / 0;1772;2022-11-17 13:44:59:948
0.0847;0.007;9.7396;-0.1631;0.0285;9.8052;0.2318;-0.0187;-0.0868;0.06;0.16;0.09;54.5;-19.62;3.88;-27.69;78.74;-0.15;0.95;5.0;34.681;;;;NaN;;;;0 / 0;1782;2022-11-17 13:44:59:958
0.0791;0.014;9.7345;-0.1631;0.0285;9.8052;0.2318;-0.0187;-0.0868;0.06;0.16;0.09;54.5;-19.62;3.88;-27.69;78.74;-0.15;0.95;5.0;34.681;;;;NaN;;;;0 / 0;1793;2022-11-17 13:44:59:969
0.0791;0.014;9.7345;-0.1631;0.0285;9.8052;0.2318;-0.0187;-0.0868;0.06;0.19;0.12;54.5;-19.62;3.88;-27.69;78.74;-0.15;0.95;5.0;34.681;;;;NaN;;;;0 / 0;1802;2022-11-17 13:44:59:978
0.0791;0.014;9.7345;-0.1631;0.0285;9.8052;0.2318;-0.0187;-0.0868;0.06;0.19;0.12;54.5;-19.62;3.88;-27.69;78.74;-0.15;0.95;5.0;34.681;;;;NaN;;;;0 / 0;1813;2022-11-17 13:44:59:989
0.0791;0.014;9.7345;-0.1631;0.0285;9.8052;0.2318;-0.0187;-0.0868;0.06;0.19;0.12;54.5;-19.62;3.88;-27.69;78.74;-0.15;0.95;5.0;34.681;;;;NaN;;;;0 / 0;1823;2022-11-17 13:44:59:999
0.0791;0.014;9.7345;-0.1631;0.0285;9.8052;0.2318;-0.0187;-0.0868;0.06;0.19;0.12;54.5;-19.62;3.88;-27.69;78.74;-0.15;0.95;5.0;34.681;;;;NaN;;;;0 / 0;1833;2022-11-17 13:45:00:009
0.0791;0.014;9.7345;-0.1631;0.0285;9.8052;0.2318;-0.0187;-0.0868;0.06;0.19;0.12;54.5;-19.62;3.88;-27.69;78.74;-0.15;0.95;5.0;34.681;;;;NaN;;;;0 / 0;1843;2022-11-17 13:45:00:019
0.0791;0.014;9.7345;-0.1648;0.0314;9.8052;0.2236;-0.0216;-0.077;0.06;0.19;0.12;54.5;-19.62;3.88;-27.69;78.74;-0.15;0.95;5.0;34.681;;;;NaN;;;;0 / 0;1852;2022-11-17 13:45:00:028
0.0791;0.014;9.7345;-0.1648;0.0314;9.8052;0.2236;-0.0216;-0.077;0.06;0.19;0.12;54.5;-19.62;3.88;-27.69;78.74;-0.15;0.95;5.0;34.681;;;;NaN;;;;0 / 0;1863;2022-11-17 13:45:00:039
0.0791;0.014;9.7345;-0.1648;0.0314;9.8052;0.2236;-0.0216;-0.077;0.06;0.19;0.12;54.5;-19.5;4.75;-27.56;75.35;-0.18;0.96;5.0;34.681;;;;NaN;;;;0 / 0;1876;2022-11-17 13:45:00:052
0.0791;0.014;9.7345;-0.1648;0.0314;9.8052;0.2236;-0.0216;-0.077;0.06;0.19;0.12;54.5;-19.5;4.75;-27.56;75.35;-0.18;0.96;5.0;34.681;;;;NaN;;;;0 / 0;1883;2022-11-17 13:45:00:059
0.0791;0.014;9.7345;-0.1648;0.0314;9.8052;0.2236;-0.0216;-0.077;0.06;0.19;0.12;54.5;-19.5;4.75;-27.56;75.35;-0.18;0.96;5.0;34.681;;;;NaN;;;;0 / 0;1894;2022-11-17 13:45:00:070
0.0791;0.014;9.7345;-0.1648;0.0314;9.8052;0.2236;-0.0216;-0.077;0.06;0.19;0.12;54.5;-19.5;4.75;-27.56;75.35;-0.18;0.96;5.0;34.681;;;;NaN;;;;0 / 0;1903;2022-11-17 13:45:00:079
0.0791;0.014;9.7345;-0.1648;0.0314;9.8052;0.2236;-0.0216;-0.077;0.06;0.19;0.12;54.5;-19.5;4.75;-27.56;75.35;-0.18;0.96;5.0;34.681;;;;NaN;;;;0 / 0;1913;2022-11-17 13:45:00:089
0.0791;0.014;9.7345;-0.1648;0.0314;9.8052;0.2236;-0.0216;-0.077;0.06;0.19;0.12;54.5;-19.5;4.75;-27.56;75.35;-0.18;0.96;5.0;34.681;;;;NaN;;;;0 / 0;1923;2022-11-17 13:45:00:099
0.0788;0.0059;9.7527;-0.1648;0.0314;9.8052;0.2236;-0.0216;-0.077;0.12;0.22;0.09;53.5;-19.5;4.75;-27.56;75.35;-0.18;0.96;5.0;34.681;;;;NaN;;;;0 / 0;1932;2022-11-17 13:45:00:108
0.0788;0.0059;9.7527;-0.1648;0.0314;9.8052;0.2236;-0.0216;-0.077;0.12;0.22;0.09;53.5;-19.5;4.75;-27.56;75.35;-0.18;0.96;5.0;34.681;;;;NaN;;;;0 / 0;1942;2022-11-17 13:45:00:118
0.0788;0.0059;9.7527;-0.1639;0.0329;9.8052;0.2227;-0.0329;-0.077;0.12;0.22;0.09;53.5;-19.5;4.75;-27.56;75.35;-0.18;0.96;5.0;34.681;;;;NaN;;;;0 / 0;1952;2022-11-17 13:45:00:128
0.0788;0.0059;9.7527;-0.1639;0.0329;9.8052;0.2227;-0.0329;-0.077;0.12;0.22;0.09;53.5;-19.5;4.75;-27.56;75.35;-0.18;0.96;5.0;39.704;;;;NaN;;;;0 / 0;1962;2022-11-17 13:45:00:138
0.0788;0.0059;9.7527;-0.1639;0.0329;9.8052;0.2227;-0.0329;-0.077;0.12;0.22;0.09;53.5;-19.5;4.75;-27.56;75.35;-0.18;0.96;5.0;39.704;;;;NaN;;;;0 / 0;1972;2022-11-17 13:45:00:148
0.0788;0.0059;9.7527;-0.1639;0.0329;9.8052;0.2227;-0.0329;-0.077;0.12;0.22;0.09;53.5;-19.5;4.75;-27.56;75.35;-0.18;0.96;5.0;39.704;;;;NaN;;;;0 / 0;1983;2022-11-17 13:45:00:159
0.0788;0.0059;9.7527;-0.1639;0.0329;9.8052;0.2227;-0.0329;-0.077;0.12;0.22;0.09;53.5;-19.31;4.19;-27.12;78.13;-0.19;0.96;5.0;39.704;;;;NaN;;;;0 / 0;1992;2022-11-17 13:45:00:168
0.0788;0.0059;9.7527;-0.1639;0.0329;9.8052;0.2227;-0.0329;-0.077;0.12;0.22;0.09;53.5;-19.31;4.19;-27.12;78.13;-0.19;0.96;5.0;39.704;;;;NaN;;;;0 / 0;2002;2022-11-17 13:45:00:178
0.0788;0.0059;9.7527;-0.1639;0.0329;9.8052;0.2227;-0.0329;-0.077;0.12;0.22;0.09;53.5;-19.31;4.19;-27.12;78.13;-0.19;0.96;5.0;39.704;;;;NaN;;;;0 / 0;2013;2022-11-17 13:45:00:189
0.0788;0.0059;9.7527;-0.1639;0.0329;9.8052;0.2227;-0.0329;-0.077;0.12;0.22;0.09;53.5;-19.31;4.19;-27.12;78.13;-0.19;0.96;5.0;39.704;;;;NaN;;;;0 / 0;2023;2022-11-17 13:45:00:199
0.0788;0.0059;9.7527;-0.1639;0.0329;9.8052;0.2227;-0.0329;-0.077;0.12;0.22;0.09;53.5;-19.31;4.19;-27.12;78.13;-0.19;0.96;5.0;39.704;;;;NaN;;;;0 / 0;2033;2022-11-17 13:45:00:209
0.0788;0.0059;9.7527;-0.1639;0.0329;9.8052;0.2227;-0.0329;-0.077;0.12;0.22;0.09;53.5;-19.31;4.19;-27.12;78.13;-0.19;0.96;5.0;39.704;;;;NaN;;;;0 / 0;2042;2022-11-17 13:45:00:218
0.0788;0.0059;9.7527;-0.1642;0.0343;9.8052;0.2231;-0.0245;-0.0672;0.12;0.22;0.09;53.5;-19.31;4.19;-27.12;78.13;-0.19;0.96;5.0;39.704;;;;NaN;;;;0 / 0;2053;2022-11-17 13:45:00:229
0.0954;0.0299;9.7452;-0.1642;0.0343;9.8052;0.2231;-0.0245;-0.0672;0.15;0.16;0.18;53.5;-19.31;4.19;-27.12;78.13;-0.19;0.96;5.0;39.704;;;;NaN;;;;0 / 0;2063;2022-11-17 13:45:00:239
0.0954;0.0299;9.7452;-0.1642;0.0343;9.8052;0.2231;-0.0245;-0.0672;0.15;0.16;0.18;53.5;-19.31;4.19;-27.12;78.13;-0.19;0.96;5.0;39.704;;;;NaN;;;;0 / 0;2072;2022-11-17 13:45:00:248
0.0954;0.0299;9.7452;-0.1642;0.0343;9.8052;0.2231;-0.0245;-0.0672;0.15;0.16;0.18;53.5;-19.31;4.19;-27.12;78.13;-0.19;0.96;5.0;39.704;;;;NaN;;;;0 / 0;2082;2022-11-17 13:45:00:258
0.0954;0.0299;9.7452;-0.1642;0.0343;9.8052;0.2231;-0.0245;-0.0672;0.15;0.16;0.18;53.5;-19.31;4.19;-27.12;78.13;-0.19;0.96;5.0;39.704;;;;NaN;;;;0 / 0;2092;2022-11-17 13:45:00:268
0.0954;0.0299;9.7452;-0.1642;0.0343;9.8052;0.2231;-0.0245;-0.0672;0.15;0.16;0.18;53.5;-19.31;4.19;-27.12;78.13;-0.19;0.96;5.0;39.704;;;;NaN;;;;0 / 0;2102;2022-11-17 13:45:00:278
0.0954;0.0299;9.7452;-0.1642;0.0343;9.8052;0.2231;-0.0245;-0.0672;0.15;0.16;0.18;53.5;-19.56;4.38;-27.56;78.68;-0.2;0.96;5.0;39.704;;;;NaN;;;;0 / 0;2112;2022-11-17 13:45:00:288
0.0954;0.0299;9.7452;-0.1642;0.0343;9.8052;0.2231;-0.0245;-0.0672;0.15;0.16;0.18;53.5;-19.56;4.38;-27.56;78.68;-0.2;0.96;5.0;39.704;;;;NaN;;;;0 / 0;2122;2022-11-17 13:45:00:298
0.0954;0.0299;9.7452;-0.1642;0.0343;9.8052;0.2231;-0.0245;-0.0672;0.15;0.16;0.18;53.5;-19.56;4.38;-27.56;78.68;-0.2;0.96;5.0;39.704;;;;NaN;;;;0 / 0;2132;2022-11-17 13:45:00:308
0.0954;0.0299;9.7452;-0.1642;0.0343;9.8052;0.2231;-0.0245;-0.0672;0.15;0.16;0.18;53.5;-19.56;4.38;-27.56;78.68;-0.2;0.96;5.0;39.704;;;;NaN;;;;0 / 0;2142;2022-11-17 13:45:00:318
0.0954;0.0299;9.7452;-0.166;0.0367;9.8051;0.2347;-0.0367;-0.0573;0.15;0.16;0.18;53.5;-19.56;4.38;-27.56;78.68;-0.2;0.96;5.0;39.704;;;;NaN;;;;0 / 0;2152;2022-11-17 13:45:00:328
0.0954;0.0299;9.7452;-0.166;0.0367;9.8051;0.2347;-0.0367;-0.0573;0.15;0.16;0.18;53.5;-19.56;4.38;-27.56;78.68;-0.2;0.96;5.0;39.704;;;;NaN;;;;0 / 0;2162;2022-11-17 13:45:00:338
0.0954;0.0299;9.7452;-0.166;0.0367;9.8051;0.2347;-0.0367;-0.0573;0.15;0.16;0.18;53.5;-19.56;4.38;-27.56;78.68;-0.2;0.96;5.0;39.704;;;;NaN;;;;0 / 0;2172;2022-11-17 13:45:00:348
0.0954;0.0299;9.7452;-0.166;0.0367;9.8051;0.2347;-0.0367;-0.0573;0.15;0.16;0.18;53.5;-19.56;4.38;-27.56;78.68;-0.2;0.96;5.0;39.704;;;;NaN;;;;0 / 0;2182;2022-11-17 13:45:00:358
0.0721;0.0218;9.7483;-0.166;0.0367;9.8051;0.2347;-0.0367;-0.0573;0.12;0.19;0.09;53.5;-19.56;4.38;-27.56;78.68;-0.2;0.96;5.0;39.704;;;;NaN;;;;0 / 0;2192;2022-11-17 13:45:00:368
0.0721;0.0218;9.7483;-0.166;0.0367;9.8051;0.2347;-0.0367;-0.0573;0.12;0.19;0.09;53.5;-19.56;4.38;-27.56;78.68;-0.2;0.96;5.0;39.704;;;;NaN;;;;0 / 0;2202;2022-11-17 13:45:00:378
0.0721;0.0218;9.7483;-0.166;0.0367;9.8051;0.2347;-0.0367;-0.0573;0.12;0.19;0.09;53.5;-19.56;4.38;-27.56;78.68;-0.2;0.96;5.0;39.704;;;;NaN;;;;0 / 0;2213;2022-11-17 13:45:00:389
0.0721;0.0218;9.7483;-0.166;0.0367;9.8051;0.2347;-0.0367;-0.0573;0.12;0.19;0.09;53.5;-19.56;4.38;-27.56;78.68;-0.2;0.96;5.0;39.704;;;;NaN;;;;0 / 0;2222;2022-11-17 13:45:00:398
0.0721;0.0218;9.7483;-0.166;0.0367;9.8051;0.2347;-0.0367;-0.0573;0.12;0.19;0.09;53.5;-19.44;4.25;-27.25;78.1;-0.21;0.97;5.0;39.704;;;;NaN;;;;0 / 0;2232;2022-11-17 13:45:00:408
0.0721;0.0218;9.7483;-0.166;0.0367;9.8051;0.2347;-0.0367;-0.0573;0.12;0.19;0.09;53.5;-19.44;4.25;-27.25;78.1;-0.21;0.97;5.0;39.704;;;;NaN;;;;0 / 0;2242;2022-11-17 13:45:00:418
0.0721;0.0218;9.7483;-0.1675;0.039;9.8051;0.2362;-0.039;-0.0573;0.12;0.19;0.09;53.5;-19.44;4.25;-27.25;78.1;-0.21;0.97;5.0;39.704;;;;NaN;;;;0 / 0;2255;2022-11-17 13:45:00:431
0.0721;0.0218;9.7483;-0.1675;0.039;9.8051;0.2362;-0.039;-0.0573;0.12;0.19;0.09;53.5;-19.44;4.25;-27.25;78.1;-0.21;0.97;5.0;39.704;;;;NaN;;;;0 / 0;2262;2022-11-17 13:45:00:438
0.0721;0.0218;9.7483;-0.1675;0.039;9.8051;0.2362;-0.039;-0.0573;0.12;0.19;0.09;52.8;-19.44;4.25;-27.25;78.1;-0.21;0.97;5.0;39.439;;;;NaN;;;;0 / 0;2272;2022-11-17 13:45:00:448
0.0721;0.0218;9.7483;-0.1675;0.039;9.8051;0.2362;-0.039;-0.0573;0.12;0.19;0.09;52.8;-19.44;4.25;-27.25;78.1;-0.21;0.97;5.0;39.439;;;;NaN;;;;0 / 0;2282;2022-11-17 13:45:00:458
0.0721;0.0218;9.7483;-0.1675;0.039;9.8051;0.2362;-0.039;-0.0573;0.12;0.19;0.09;52.8;-19.44;4.25;-27.25;78.1;-0.21;0.97;5.0;39.439;;;;NaN;;;;0 / 0;2294;2022-11-17 13:45:00:470
0.0721;0.0218;9.7483;-0.1675;0.039;9.8051;0.2362;-0.039;-0.0573;0.12;0.19;0.09;52.8;-19.44;4.25;-27.25;78.1;-0.21;0.97;5.0;39.439;;;;NaN;;;;0 / 0;2302;2022-11-17 13:45:00:478
0.0721;0.0218;9.7483;-0.1675;0.039;9.8051;0.2362;-0.039;-0.0573;0.12;0.19;0.09;52.8;-19.44;4.25;-27.25;78.1;-0.21;0.97;5.0;39.439;;;;NaN;;;;0 / 0;2312;2022-11-17 13:45:00:488
0.0758;0.0279;9.738;-0.1675;0.039;9.8051;0.2362;-0.039;-0.0573;0.12;0.31;0.12;52.8;-19.44;4.25;-27.25;78.1;-0.21;0.97;5.0;39.439;;;;NaN;;;;0 / 0;2322;2022-11-17 13:45:00:498
0.0758;0.0279;9.738;-0.1675;0.039;9.8051;0.2362;-0.039;-0.0573;0.12;0.31;0.12;52.8;-19.44;4.25;-27.25;78.1;-0.21;0.97;5.0;39.439;;;;NaN;;;;0 / 0;2332;2022-11-17 13:45:00:508
0.0758;0.0279;9.738;-0.1675;0.039;9.8051;0.2362;-0.039;-0.0573;0.12;0.31;0.12;52.8;-19.44;4.25;-27.25;78.1;-0.21;0.97;5.0;39.439;;;;NaN;;;;0 / 0;2343;2022-11-17 13:45:00:519
0.0758;0.0279;9.738;-0.1688;0.0411;9.8051;0.2276;-0.0312;-0.0671;0.12;0.31;0.12;52.8;-19.37;4.75;-27.5;75.3;-0.23;0.98;5.0;39.439;;;;NaN;;;;0 / 0;2352;2022-11-17 13:45:00:528
0.0758;0.0279;9.738;-0.1688;0.0411;9.8051;0.2276;-0.0312;-0.0671;0.12;0.31;0.12;52.8;-19.37;4.75;-27.5;75.3;-0.23;0.98;5.0;39.439;;;;NaN;;;;0 / 0;2362;2022-11-17 13:45:00:538
0.0758;0.0279;9.738;-0.1688;0.0411;9.8051;0.2276;-0.0312;-0.0671;0.12;0.31;0.12;52.8;-19.37;4.75;-27.5;75.3;-0.23;0.98;5.0;39.439;;;;NaN;;;;0 / 0;2373;2022-11-17 13:45:00:549
0.0758;0.0279;9.738;-0.1688;0.0411;9.8051;0.2276;-0.0312;-0.0671;0.12;0.31;0.12;52.8;-19.37;4.75;-27.5;75.3;-0.23;0.98;5.0;39.439;;;;NaN;;;;0 / 0;2383;2022-11-17 13:45:00:559
0.0758;0.0279;9.738;-0.1688;0.0411;9.8051;0.2276;-0.0312;-0.0671;0.12;0.31;0.12;52.8;-19.37;4.75;-27.5;75.3;-0.23;0.98;5.0;39.439;;;;NaN;;;;0 / 0;2392;2022-11-17 13:45:00:568
0.0758;0.0279;9.738;-0.1688;0.0411;9.8051;0.2276;-0.0312;-0.0671;0.12;0.31;0.12;52.8;-19.37;4.75;-27.5;75.3;-0.23;0.98;5.0;39.439;;;;NaN;;;;0 / 0;2402;2022-11-17 13:45:00:578
0.0758;0.0279;9.738;-0.1688;0.0411;9.8051;0.2276;-0.0312;-0.0671;0.12;0.31;0.12;52.8;-19.37;4.75;-27.5;75.3;-0.23;0.98;5.0;39.439;;;;NaN;;;;0 / 0;2412;2022-11-17 13:45:00:588
0.0758;0.0279;9.738;-0.1688;0.0411;9.8051;0.2276;-0.0312;-0.0671;0.12;0.31;0.12;52.8;-19.37;4.75;-27.5;75.3;-0.23;0.98;5.0;39.439;;;;NaN;;;;0 / 0;2423;2022-11-17 13:45:00:599
0.0758;0.0279;9.738;-0.1688;0.0411;9.8051;0.2276;-0.0312;-0.0671;0.12;0.31;0.12;52.8;-19.37;4.75;-27.5;75.3;-0.23;0.98;5.0;39.439;;;;NaN;;;;0 / 0;2433;2022-11-17 13:45:00:609
0.0758;0.0279;9.738;-0.1688;0.0411;9.8051;0.2276;-0.0312;-0.0671;0.12;0.31;0.12;52.8;-19.37;4.75;-27.5;75.3;-0.23;0.98;5.0;39.439;;;;NaN;;;;0 / 0;2443;2022-11-17 13:45:00:619
0.0769;0.0146;9.7455;-0.1687;0.0432;9.8051;0.2275;-0.0333;-0.067;0.03;0.22;0.15;52.8;-19.37;4.75;-27.5;75.3;-0.23;0.98;5.0;39.439;;;;NaN;;;;0 / 0;2452;2022-11-17 13:45:00:628
0.0769;0.0146;9.7455;-0.1687;0.0432;9.8051;0.2275;-0.0333;-0.067;0.03;0.22;0.15;52.8;-19.37;4.75;-27.5;75.3;-0.23;0.98;5.0;39.439;;;;NaN;;;;0 / 0;2462;2022-11-17 13:45:00:638
0.0769;0.0146;9.7455;-0.1687;0.0432;9.8051;0.2275;-0.0333;-0.067;0.03;0.22;0.15;52.8;-19.75;4.0;-28.0;78.62;-0.25;0.99;5.0;39.439;;;;NaN;;;;0 / 0;2473;2022-11-17 13:45:00:649
0.0769;0.0146;9.7455;-0.1687;0.0432;9.8051;0.2275;-0.0333;-0.067;0.03;0.22;0.15;52.8;-19.75;4.0;-28.0;78.62;-0.25;0.99;5.0;39.439;;;;NaN;;;;0 / 0;2483;2022-11-17 13:45:00:659
0.0769;0.0146;9.7455;-0.1687;0.0432;9.8051;0.2275;-0.0333;-0.067;0.03;0.22;0.15;52.8;-19.75;4.0;-28.0;78.62;-0.25;0.99;5.0;39.439;;;;NaN;;;;0 / 0;2493;2022-11-17 13:45:00:669
0.0769;0.0146;9.7455;-0.1687;0.0432;9.8051;0.2275;-0.0333;-0.067;0.03;0.22;0.15;52.8;-19.75;4.0;-28.0;78.62;-0.25;0.99;5.0;39.439;;;;NaN;;;;0 / 0;2503;2022-11-17 13:45:00:679
0.0769;0.0146;9.7455;-0.1687;0.0432;9.8051;0.2275;-0.0333;-0.067;0.03;0.22;0.15;52.8;-19.75;4.0;-28.0;78.62;-0.25;0.99;5.0;39.439;;;;NaN;;;;0 / 0;2512;2022-11-17 13:45:00:688
0.0769;0.0146;9.7455;-0.1687;0.0432;9.8051;0.2275;-0.0333;-0.067;0.03;0.22;0.15;52.8;-19.75;4.0;-28.0;78.62;-0.25;0.99;5.0;39.439;;;;NaN;;;;0 / 0;2523;2022-11-17 13:45:00:699
0.0769;0.0146;9.7455;-0.1687;0.0432;9.8051;0.2275;-0.0333;-0.067;0.03;0.22;0.15;52.8;-19.75;4.0;-28.0;78.62;-0.25;0.99;5.0;39.439;;;;NaN;;;;0 / 0;2532;2022-11-17 13:45:00:708
0.0769;0.0146;9.7455;-0.1687;0.0432;9.8051;0.2275;-0.0333;-0.067;0.03;0.22;0.15;52.8;-19.75;4.0;-28.0;78.62;-0.25;0.99;5.0;39.439;;;;NaN;;;;0 / 0;2543;2022-11-17 13:45:00:719
0.0769;0.0146;9.7455;-0.1668;0.044;9.8051;0.2256;-0.044;-0.0671;0.03;0.22;0.15;52.8;-19.75;4.0;-28.0;78.62;-0.25;0.99;5.0;39.439;;;;NaN;;;;0 / 0;2552;2022-11-17 13:45:00:728
0.0769;0.0146;9.7455;-0.1668;0.044;9.8051;0.2256;-0.044;-0.0671;0.03;0.22;0.15;52.8;-19.75;4.0;-28.0;78.62;-0.25;0.99;5.0;39.439;;;;NaN;;;;0 / 0;2562;2022-11-17 13:45:00:738
0.0769;0.0146;9.7455;-0.1668;0.044;9.8051;0.2256;-0.044;-0.0671;0.03;0.22;0.15;52.8;-19.75;4.0;-28.0;78.62;-0.25;0.99;5.0;39.439;;;;NaN;;;;0 / 0;2572;2022-11-17 13:45:00:748
0.0769;0.0146;9.7455;-0.1668;0.044;9.8051;0.2256;-0.044;-0.0671;0.03;0.22;0.15;52.8;-19.75;4.0;-28.0;78.62;-0.25;0.99;5.0;39.439;;;;NaN;;;;0 / 0;2582;2022-11-17 13:45:00:758
0.1013;0.0065;9.7528;-0.1668;0.044;9.8051;0.2256;-0.044;-0.0671;0.03;-0.04;0.04;52.8;-19.31;4.13;-27.25;78.05;-0.26;0.97;5.0;39.439;;;;NaN;;;;0 / 0;2592;2022-11-17 13:45:00:768
0.1013;0.0065;9.7528;-0.1668;0.044;9.8051;0.2256;-0.044;-0.0671;0.03;-0.04;0.04;52.8;-19.31;4.13;-27.25;78.05;-0.26;0.97;5.0;39.439;;;;NaN;;;;0 / 0;2602;2022-11-17 13:45:00:778
0.1013;0.0065;9.7528;-0.1668;0.044;9.8051;0.2256;-0.044;-0.0671;0.03;-0.04;0.04;52.8;-19.31;4.13;-27.25;78.05;-0.26;0.97;5.0;42.236;;;;NaN;;;;0 / 0;2612;2022-11-17 13:45:00:788
0.1013;0.0065;9.7528;-0.1668;0.044;9.8051;0.2256;-0.044;-0.0671;0.03;-0.04;0.04;52.8;-19.31;4.13;-27.25;78.05;-0.26;0.97;5.0;42.236;;;;NaN;;;;0 / 0;2624;2022-11-17 13:45:00:800
0.1013;0.0065;9.7528;-0.1668;0.044;9.8051;0.2256;-0.044;-0.0671;0.03;-0.04;0.04;53.5;-19.31;4.13;-27.25;78.05;-0.26;0.97;5.0;42.236;;;;NaN;;;;0 / 0;2633;2022-11-17 13:45:00:809
0.1013;0.0065;9.7528;-0.1668;0.044;9.8051;0.2256;-0.044;-0.0671;0.03;-0.04;0.04;53.5;-19.31;4.13;-27.25;78.05;-0.26;0.97;5.0;42.236;;;;NaN;;;;0 / 0;2642;2022-11-17 13:45:00:818
0.1013;0.0065;9.7528;-0.162;0.0438;9.8052;0.2209;-0.0438;-0.077;0.03;-0.04;0.04;53.5;-19.31;4.13;-27.25;78.05;-0.26;0.97;5.0;42.236;;;;NaN;;;;0 / 0;2653;2022-11-17 13:45:00:829
0.1013;0.0065;9.7528;-0.162;0.0438;9.8052;0.2209;-0.0438;-0.077;0.03;-0.04;0.04;53.5;-19.31;4.13;-27.25;78.05;-0.26;0.97;5.0;42.236;;;;NaN;;;;0 / 0;2662;2022-11-17 13:45:00:838
0.1013;0.0065;9.7528;-0.162;0.0438;9.8052;0.2209;-0.0438;-0.077;0.03;-0.04;0.04;53.5;-19.31;4.13;-27.25;78.05;-0.26;0.97;5.0;42.236;;;;NaN;;;;0 / 0;2672;2022-11-17 13:45:00:848
0.1013;0.0065;9.7528;-0.162;0.0438;9.8052;0.2209;-0.0438;-0.077;0.03;-0.04;0.04;53.5;-19.31;4.13;-27.25;78.05;-0.26;0.97;5.0;42.236;;;;NaN;;;;0 / 0;2683;2022-11-17 13:45:00:859
0.1013;0.0065;9.7528;-0.162;0.0438;9.8052;0.2209;-0.0438;-0.077;0.03;-0.04;0.04;53.5;-19.31;4.13;-27.25;78.05;-0.26;0.97;5.0;42.236;;;;NaN;;;;0 / 0;2693;2022-11-17 13:45:00:869
0.1013;0.0065;9.7528;-0.162;0.0438;9.8052;0.2209;-0.0438;-0.077;0.03;-0.04;0.04;53.5;-19.31;4.13;-27.25;78.05;-0.26;0.97;5.0;42.236;;;;NaN;;;;0 / 0;2702;2022-11-17 13:45:00:878
0.1013;0.0065;9.7528;-0.162;0.0438;9.8052;0.2209;-0.0438;-0.077;0.03;-0.04;0.04;53.5;-19.44;4.06;-27.56;78.04;-0.26;0.95;5.0;42.236;;;;NaN;;;;0 / 0;2712;2022-11-17 13:45:00:888
0.0672;0.0175;9.7487;-0.162;0.0438;9.8052;0.2209;-0.0438;-0.077;0.0;0.02;-0.05;53.5;-19.44;4.06;-27.56;78.04;-0.26;0.95;5.0;42.236;;;;NaN;;;;0 / 0;2722;2022-11-17 13:45:00:898
0.0672;0.0175;9.7487;-0.162;0.0438;9.8052;0.2209;-0.0438;-0.077;0.0;0.02;-0.05;53.5;-19.44;4.06;-27.56;78.04;-0.26;0.95;5.0;42.236;;;;NaN;;;;0 / 0;2732;2022-11-17 13:45:00:908
0.0672;0.0175;9.7487;-0.162;0.0438;9.8052;0.2209;-0.0438;-0.077;0.0;0.02;-0.05;53.5;-19.44;4.06;-27.56;78.04;-0.26;0.95;5.0;42.236;;;;NaN;;;;0 / 0;2743;2022-11-17 13:45:00:919
0.0672;0.0175;9.7487;-0.142;0.0399;9.8055;0.2204;-0.0399;-0.0871;0.0;0.02;-0.05;53.5;-19.44;4.06;-27.56;78.04;-0.26;0.95;5.0;42.236;;;;NaN;;;;0 / 0;2753;2022-11-17 13:45:00:929
0.0672;0.0175;9.7487;-0.142;0.0399;9.8055;0.2204;-0.0399;-0.0871;0.0;0.02;-0.05;53.5;-19.44;4.06;-27.56;78.04;-0.26;0.95;5.0;42.236;;;;NaN;;;;0 / 0;2763;2022-11-17 13:45:00:939
0.0672;0.0175;9.7487;-0.142;0.0399;9.8055;0.2204;-0.0399;-0.0871;0.0;0.02;-0.05;53.5;-19.44;4.06;-27.56;78.04;-0.26;0.95;5.0;42.236;;;;NaN;;;;0 / 0;2772;2022-11-17 13:45:00:948
0.0672;0.0175;9.7487;-0.142;0.0399;9.8055;0.2204;-0.0399;-0.0871;0.0;0.02;-0.05;53.5;-19.44;4.06;-27.56;78.04;-0.26;0.95;5.0;42.236;;;;NaN;;;;0 / 0;2782;2022-11-17 13:45:00:958
0.0672;0.0175;9.7487;-0.142;0.0399;9.8055;0.2204;-0.0399;-0.0871;0.0;0.02;-0.05;53.5;-19.44;4.06;-27.56;78.04;-0.26;0.95;5.0;42.236;;;;NaN;;;;0 / 0;2792;2022-11-17 13:45:00:968
0.0672;0.0175;9.7487;-0.142;0.0399;9.8055;0.2204;-0.0399;-0.0871;0.0;0.02;-0.05;53.5;-19.44;4.06;-27.56;78.04;-0.26;0.95;5.0;42.236;;;;NaN;;;;0 / 0;2802;2022-11-17 13:45:00:978
0.0672;0.0175;9.7487;-0.142;0.0399;9.8055;0.2204;-0.0399;-0.0871;0.0;0.02;-0.05;53.5;-19.44;4.06;-27.56;78.04;-0.26;0.95;5.0;42.236;;;;NaN;;;;0 / 0;2813;2022-11-17 13:45:00:989
0.0672;0.0175;9.7487;-0.142;0.0399;9.8055;0.2204;-0.0399;-0.0871;0.0;0.02;-0.05;53.5;-19.44;4.06;-27.56;78.04;-0.26;0.95;5.0;42.236;;;;NaN;;;;0 / 0;2822;2022-11-17 13:45:00:998
0.0672;0.0175;9.7487;-0.142;0.0399;9.8055;0.2204;-0.0399;-0.0871;0.0;0.02;-0.05;53.5;-19.25;4.56;-28.0;75.24;-0.23;0.83;5.0;42.236;;;;NaN;;;;0 / 0;2832;2022-11-17 13:45:01:008
0.0672;0.0175;9.7487;-0.142;0.0399;9.8055;0.2204;-0.0399;-0.0871;0.0;0.02;-0.05;53.5;-19.25;4.56;-28.0;75.24;-0.23;0.83;5.0;42.236;;;;NaN;;;;0 / 0;2842;2022-11-17 13:45:01:018
0.0823;0.0163;9.7347;-0.1099;0.0344;9.8059;0.1786;-0.0344;-0.0679;0.03;0.05;-0.02;53.5;-19.25;4.56;-28.0;75.24;-0.23;0.83;5.0;42.236;;;;NaN;;;;0 / 0;2852;2022-11-17 13:45:01:028
0.0823;0.0163;9.7347;-0.1099;0.0344;9.8059;0.1786;-0.0344;-0.0679;0.03;0.05;-0.02;53.5;-19.25;4.56;-28.0;75.24;-0.23;0.83;5.0;42.236;;;;NaN;;;;0 / 0;2862;2022-11-17 13:45:01:038
0.0823;0.0163;9.7347;-0.1099;0.0344;9.8059;0.1786;-0.0344;-0.0679;0.03;0.05;-0.02;53.5;-19.25;4.56;-28.0;75.24;-0.23;0.83;5.0;42.236;;;;NaN;;;;0 / 0;2873;2022-11-17 13:45:01:049
0.0823;0.0163;9.7347;-0.1099;0.0344;9.8059;0.1786;-0.0344;-0.0679;0.03;0.05;-0.02;53.5;-19.25;4.56;-28.0;75.24;-0.23;0.83;5.0;42.236;;;;NaN;;;;0 / 0;2882;2022-11-17 13:45:01:058
0.0823;0.0163;9.7347;-0.1099;0.0344;9.8059;0.1786;-0.0344;-0.0679;0.03;0.05;-0.02;53.5;-19.25;4.56;-28.0;75.24;-0.23;0.83;5.0;42.236;;;;NaN;;;;0 / 0;2892;2022-11-17 13:45:01:068
0.0823;0.0163;9.7347;-0.1099;0.0344;9.8059;0.1786;-0.0344;-0.0679;0.03;0.05;-0.02;53.5;-19.25;4.56;-28.0;75.24;-0.23;0.83;5.0;42.236;;;;NaN;;;;0 / 0;2904;2022-11-17 13:45:01:080
0.0823;0.0163;9.7347;-0.1099;0.0344;9.8059;0.1786;-0.0344;-0.0679;0.03;0.05;-0.02;53.5;-19.25;4.56;-28.0;75.24;-0.23;0.83;5.0;42.236;;;;NaN;;;;0 / 0;2912;2022-11-17 13:45:01:088
0.0823;0.0163;9.7347;-0.1099;0.0344;9.8059;0.1786;-0.0344;-0.0679;0.03;0.05;-0.02;53.5;-19.25;4.56;-28.0;75.24;-0.23;0.83;5.0;42.236;;;;NaN;;;;0 / 0;2922;2022-11-17 13:45:01:098
0.0823;0.0163;9.7347;-0.1099;0.0344;9.8059;0.1786;-0.0344;-0.0679;0.03;0.05;-0.02;53.5;-19.25;4.56;-28.0;75.24;-0.23;0.83;5.0;36.969;;;;NaN;;;;0 / 0;2932;2022-11-17 13:45:01:108
0.0823;0.0163;9.7347;-0.1099;0.0344;9.8059;0.1786;-0.0344;-0.0679;0.03;0.05;-0.02;53.5;-19.25;4.56;-28.0;75.24;-0.23;0.83;5.0;36.969;;;;NaN;;;;0 / 0;2942;2022-11-17 13:45:01:118
0.0823;0.0163;9.7347;-0.0874;0.0299;9.8062;0.1463;-0.0299;-0.0584;0.03;0.05;-0.02;53.5;-19.44;3.81;-27.44;78.02;-0.2;0.64;5.0;36.969;;;;NaN;;;;0 / 0;2952;2022-11-17 13:45:01:128
0.0823;0.0163;9.7347;-0.0874;0.0299;9.8062;0.1463;-0.0299;-0.0584;0.03;0.05;-0.02;53.5;-19.44;3.81;-27.44;78.02;-0.2;0.64;5.0;36.969;;;;NaN;;;;0 / 0;2962;2022-11-17 13:45:01:138
0.0823;0.0163;9.7347;-0.0874;0.0299;9.8062;0.1463;-0.0299;-0.0584;0.03;0.05;-0.02;53.5;-19.44;3.81;-27.44;78.02;-0.2;0.64;5.0;36.969;;;;NaN;;;;0 / 0;2973;2022-11-17 13:45:01:149
0.0902;0.0209;9.7489;-0.0874;0.0299;9.8062;0.1463;-0.0299;-0.0584;-0.06;-0.07;0.01;54.4;-19.44;3.81;-27.44;78.02;-0.2;0.64;5.0;36.969;;;;NaN;;;;0 / 0;2983;2022-11-17 13:45:01:159
0.0902;0.0209;9.7489;-0.0874;0.0299;9.8062;0.1463;-0.0299;-0.0584;-0.06;-0.07;0.01;54.4;-19.44;3.81;-27.44;78.02;-0.2;0.64;5.0;36.969;;;;NaN;;;;0 / 0;2992;2022-11-17 13:45:01:168
0.0902;0.0209;9.7489;-0.0874;0.0299;9.8062;0.1463;-0.0299;-0.0584;-0.06;-0.07;0.01;54.4;-19.44;3.81;-27.44;78.02;-0.2;0.64;5.0;36.969;;;;NaN;;;;0 / 0;3002;2022-11-17 13:45:01:178
0.0902;0.0209;9.7489;-0.0874;0.0299;9.8062;0.1463;-0.0299;-0.0584;-0.06;-0.07;0.01;54.4;-19.44;3.81;-27.44;78.02;-0.2;0.64;5.0;36.969;;;;NaN;;;;0 / 0;3012;2022-11-17 13:45:01:188
0.0902;0.0209;9.7489;-0.0874;0.0299;9.8062;0.1463;-0.0299;-0.0584;-0.06;-0.07;0.01;54.4;-19.44;3.81;-27.44;78.02;-0.2;0.64;5.0;36.969;;;;NaN;;;;0 / 0;3022;2022-11-17 13:45:01:198
0.0902;0.0209;9.7489;-0.0874;0.0299;9.8062;0.1463;-0.0299;-0.0584;-0.06;-0.07;0.01;54.4;-19.44;3.81;-27.44;78.02;-0.2;0.64;5.0;36.969;;;;NaN;;;;0 / 0;3032;2022-11-17 13:45:01:208
0.0902;0.0209;9.7489;-0.0874;0.0299;9.8062;0.1463;-0.0299;-0.0584;-0.06;-0.07;0.01;54.4;-19.44;3.81;-27.44;78.02;-0.2;0.64;5.0;36.969;;;;NaN;;;;0 / 0;3042;2022-11-17 13:45:01:218
0.0902;0.0209;9.7489;-0.0874;0.0299;9.8062;0.1463;-0.0299;-0.0584;-0.06;-0.07;0.01;54.4;-19.44;3.81;-27.44;78.02;-0.2;0.64;5.0;36.969;;;;NaN;;;;0 / 0;3052;2022-11-17 13:45:01:228
0.0902;0.0209;9.7489;-0.0874;0.0299;9.8062;0.1463;-0.0299;-0.0584;-0.06;-0.07;0.01;54.4;-19.44;3.81;-27.44;78.02;-0.2;0.64;5.0;36.969;;;;NaN;;;;0 / 0;3063;2022-11-17 13:45:01:239
0.0803;0.0198;9.7527;-0.0713;0.0272;9.8063;0.14;-0.0174;-0.0683;-0.06;-0.07;0.01;54.4;-19.31;3.88;-27.06;78.02;-0.16;0.42;5.0;36.969;;;;NaN;;;;0 / 0;3074;2022-11-17 13:45:01:250
0.0803;0.0198;9.7527;-0.0713;0.0272;9.8063;0.14;-0.0174;-0.0683;-0.06;-0.07;0.01;54.4;-19.31;3.88;-27.06;78.02;-0.16;0.42;5.0;36.969;;;;NaN;;;;0 / 0;3082;2022-11-17 13:45:01:258
0.0803;0.0198;9.7527;-0.0713;0.0272;9.8063;0.14;-0.0174;-0.0683;-0.06;-0.07;0.01;54.4;-19.31;3.88;-27.06;78.02;-0.16;0.42;5.0;36.969;;;;NaN;;;;0 / 0;3092;2022-11-17 13:45:01:268
0.0803;0.0198;9.7527;-0.0713;0.0272;9.8063;0.14;-0.0174;-0.0683;-0.06;-0.07;0.01;54.4;-19.31;3.88;-27.06;78.02;-0.16;0.42;5.0;36.969;;;;NaN;;;;0 / 0;3105;2022-11-17 13:45:01:281
0.0803;0.0198;9.7527;-0.0713;0.0272;9.8063;0.14;-0.0174;-0.0683;0.0;-0.01;-0.02;54.4;-19.31;3.88;-27.06;78.02;-0.16;0.42;5.0;36.969;;;;NaN;;;;0 / 0;3112;2022-11-17 13:45:01:288
0.0803;0.0198;9.7527;-0.0713;0.0272;9.8063;0.14;-0.0174;-0.0683;0.0;-0.01;-0.02;54.4;-19.31;3.88;-27.06;78.02;-0.16;0.42;5.0;36.969;;;;NaN;;;;0 / 0;3123;2022-11-17 13:45:01:299
0.0803;0.0198;9.7527;-0.0713;0.0272;9.8063;0.14;-0.0174;-0.0683;0.0;-0.01;-0.02;54.4;-19.31;3.88;-27.06;78.02;-0.16;0.42;5.0;36.969;;;;NaN;;;;0 / 0;3132;2022-11-17 13:45:01:308
0.0803;0.0198;9.7527;-0.0713;0.0272;9.8063;0.14;-0.0174;-0.0683;0.0;-0.01;-0.02;54.4;-19.31;3.88;-27.06;78.02;-0.16;0.42;5.0;36.969;;;;NaN;;;;0 / 0;3142;2022-11-17 13:45:01:318
0.0803;0.0198;9.7527;-0.0713;0.0272;9.8063;0.14;-0.0174;-0.0683;0.0;-0.01;-0.02;54.4;-19.31;3.88;-27.06;78.02;-0.16;0.42;5.0;36.969;;;;NaN;;;;0 / 0;3152;2022-11-17 13:45:01:328
0.0803;0.0198;9.7527;-0.0713;0.0272;9.8063;0.14;-0.0174;-0.0683;0.0;-0.01;-0.02;54.4;-19.31;3.88;-27.06;78.02;-0.16;0.42;5.0;36.969;;;;NaN;;;;0 / 0;3162;2022-11-17 13:45:01:338
0.0803;0.0198;9.7527;-0.0545;0.024;9.8064;0.1232;-0.024;-0.0586;0.0;-0.01;-0.02;54.4;-19.31;3.88;-27.06;78.02;-0.16;0.42;5.0;36.969;;;;NaN;;;;0 / 0;3173;2022-11-17 13:45:01:349
0.0843;0.0276;9.7378;-0.0545;0.024;9.8064;0.1232;-0.024;-0.0586;0.0;-0.01;-0.02;54.4;-19.31;3.88;-27.06;78.02;-0.16;0.42;5.0;36.969;;;;NaN;;;;0 / 0;3182;2022-11-17 13:45:01:358
0.0843;0.0276;9.7378;-0.0545;0.024;9.8064;0.1232;-0.024;-0.0586;0.0;-0.01;-0.02;54.4;-19.44;4.31;-27.81;78.01;-0.14;0.32;5.0;36.969;;;;NaN;;;;0 / 0;3198;2022-11-17 13:45:01:374
0.0843;0.0276;9.7378;-0.0545;0.024;9.8064;0.1232;-0.024;-0.0586;0.0;-0.01;-0.02;54.4;-19.44;4.31;-27.81;78.01;-0.14;0.32;5.0;36.969;;;;NaN;;;;0 / 0;3203;2022-11-17 13:45:01:379
0.0843;0.0276;9.7378;-0.0545;0.024;9.8064;0.1232;-0.024;-0.0586;0.0;-0.01;-0.02;54.4;-19.44;4.31;-27.81;78.01;-0.14;0.32;5.0;36.969;;;;NaN;;;;0 / 0;3213;2022-11-17 13:45:01:389
0.0843;0.0276;9.7378;-0.0545;0.024;9.8064;0.1232;-0.024;-0.0586;0.0;-0.01;-0.02;54.4;-19.44;4.31;-27.81;78.01;-0.14;0.32;5.0;36.969;;;;NaN;;;;0 / 0;3222;2022-11-17 13:45:01:398
0.0843;0.0276;9.7378;-0.0545;0.024;9.8064;0.1232;-0.024;-0.0586;0.0;-0.01;-0.02;54.4;-19.44;4.31;-27.81;78.01;-0.14;0.32;5.0;36.969;;;;NaN;;;;0 / 0;3232;2022-11-17 13:45:01:408
0.0843;0.0276;9.7378;-0.0545;0.024;9.8064;0.1232;-0.024;-0.0586;0.0;-0.01;-0.02;54.4;-19.44;4.31;-27.81;78.01;-0.14;0.32;5.0;36.969;;;;NaN;;;;0 / 0;3242;2022-11-17 13:45:01:418
0.0843;0.0276;9.7378;-0.0545;0.024;9.8064;0.1232;-0.024;-0.0586;-0.03;-0.04;0.04;54.4;-19.44;4.31;-27.81;78.01;-0.14;0.32;5.0;32.061;;;;NaN;;;;0 / 0;3252;2022-11-17 13:45:01:428
0.0843;0.0276;9.7378;-0.0545;0.024;9.8064;0.1232;-0.024;-0.0586;-0.03;-0.04;0.04;54.4;-19.44;4.31;-27.81;78.01;-0.14;0.32;5.0;32.061;;;;NaN;;;;0 / 0;3262;2022-11-17 13:45:01:438
0.0843;0.0276;9.7378;-0.0439;0.0221;9.8065;0.1027;-0.0123;-0.0685;-0.03;-0.04;0.04;54.4;-19.44;4.31;-27.81;78.01;-0.14;0.32;5.0;32.061;;;;NaN;;;;0 / 0;3272;2022-11-17 13:45:01:448
0.0843;0.0276;9.7378;-0.0439;0.0221;9.8065;0.1027;-0.0123;-0.0685;-0.03;-0.04;0.04;54.4;-19.44;4.31;-27.81;78.01;-0.14;0.32;5.0;32.061;;;;NaN;;;;0 / 0;3282;2022-11-17 13:45:01:458
0.0843;0.0276;9.7378;-0.0439;0.0221;9.8065;0.1027;-0.0123;-0.0685;-0.03;-0.04;0.04;54.4;-19.44;4.31;-27.81;78.01;-0.14;0.32;5.0;32.061;;;;NaN;;;;0 / 0;3292;2022-11-17 13:45:01:468
0.0843;0.0276;9.7378;-0.0439;0.0221;9.8065;0.1027;-0.0123;-0.0685;-0.03;-0.04;0.04;54.4;-19.44;4.31;-27.81;78.01;-0.14;0.32;5.0;32.061;;;;NaN;;;;0 / 0;3302;2022-11-17 13:45:01:478
0.0737;0.0112;9.75;-0.0439;0.0221;9.8065;0.1027;-0.0123;-0.0685;-0.03;-0.04;0.04;54.4;-19.69;4.25;-27.44;78.59;-0.13;0.26;5.0;32.061;;;;NaN;;;;0 / 0;3312;2022-11-17 13:45:01:488
0.0737;0.0112;9.75;-0.0439;0.0221;9.8065;0.1027;-0.0123;-0.0685;-0.03;-0.04;0.04;54.4;-19.69;4.25;-27.44;78.59;-0.13;0.26;5.0;32.061;;;;NaN;;;;0 / 0;3323;2022-11-17 13:45:01:499
0.0737;0.0112;9.75;-0.0439;0.0221;9.8065;0.1027;-0.0123;-0.0685;-0.03;-0.04;0.04;54.5;-19.69;4.25;-27.44;78.59;-0.13;0.26;5.0;32.061;;;;NaN;;;;0 / 0;3332;2022-11-17 13:45:01:508
0.0737;0.0112;9.75;-0.0439;0.0221;9.8065;0.1027;-0.0123;-0.0685;-0.03;-0.04;0.04;54.5;-19.69;4.25;-27.44;78.59;-0.13;0.26;5.0;32.061;;;;NaN;;;;0 / 0;3343;2022-11-17 13:45:01:519
0.0737;0.0112;9.75;-0.0439;0.0221;9.8065;0.1027;-0.0123;-0.0685;-0.03;-0.04;0.04;54.5;-19.69;4.25;-27.44;78.59;-0.13;0.26;5.0;32.061;;;;NaN;;;;0 / 0;3352;2022-11-17 13:45:01:528
0.0737;0.0112;9.75;-0.0439;0.0221;9.8065;0.1027;-0.0123;-0.0685;-0.03;-0.04;0.04;54.5;-19.69;4.25;-27.44;78.59;-0.13;0.26;5.0;32.061;;;;NaN;;;;0 / 0;3362;2022-11-17 13:45:01:538
0.0737;0.0112;9.75;-0.033;0.0204;9.8065;0.1114;-8.0E-4;-0.0587;-0.03;-0.04;0.04;54.5;-19.69;4.25;-27.44;78.59;-0.13;0.26;5.0;32.061;;;;NaN;;;;0 / 0;3372;2022-11-17 13:45:01:548
0.0737;0.0112;9.75;-0.033;0.0204;9.8065;0.1114;-8.0E-4;-0.0587;0.0;0.05;-0.02;54.5;-19.69;4.25;-27.44;78.59;-0.13;0.26;5.0;32.061;;;;NaN;;;;0 / 0;3383;2022-11-17 13:45:01:559
0.0737;0.0112;9.75;-0.033;0.0204;9.8065;0.1114;-8.0E-4;-0.0587;0.0;0.05;-0.02;54.5;-19.69;4.25;-27.44;78.59;-0.13;0.26;5.0;32.061;;;;NaN;;;;0 / 0;3392;2022-11-17 13:45:01:568
0.0737;0.0112;9.75;-0.033;0.0204;9.8065;0.1114;-8.0E-4;-0.0587;0.0;0.05;-0.02;54.5;-19.69;4.25;-27.44;78.59;-0.13;0.26;5.0;32.061;;;;NaN;;;;0 / 0;3402;2022-11-17 13:45:01:578
0.0737;0.0112;9.75;-0.033;0.0204;9.8065;0.1114;-8.0E-4;-0.0587;0.0;0.05;-0.02;54.5;-19.69;4.25;-27.44;78.59;-0.13;0.26;5.0;32.061;;;;NaN;;;;0 / 0;3412;2022-11-17 13:45:01:588
0.0737;0.0112;9.75;-0.033;0.0204;9.8065;0.1114;-8.0E-4;-0.0587;0.0;0.05;-0.02;54.5;-19.69;4.25;-27.44;78.59;-0.13;0.26;5.0;32.061;;;;NaN;;;;0 / 0;3422;2022-11-17 13:45:01:598
0.0737;0.0112;9.75;-0.033;0.0204;9.8065;0.1114;-8.0E-4;-0.0587;0.0;0.05;-0.02;54.5;-19.25;4.31;-27.81;78.0;-0.12;0.19;5.0;32.061;;;;NaN;;;;0 / 0;3432;2022-11-17 13:45:01:608
0.0841;0.0028;9.7578;-0.033;0.0204;9.8065;0.1114;-8.0E-4;-0.0587;0.0;0.05;-0.02;54.5;-19.25;4.31;-27.81;78.0;-0.12;0.19;5.0;32.061;;;;NaN;;;;0 / 0;3443;2022-11-17 13:45:01:619
0.0841;0.0028;9.7578;-0.033;0.0204;9.8065;0.1114;-8.0E-4;-0.0587;0.0;0.05;-0.02;54.5;-19.25;4.31;-27.81;78.0;-0.12;0.19;5.0;32.061;;;;NaN;;;;0 / 0;3453;2022-11-17 13:45:01:629
0.0841;0.0028;9.7578;-0.033;0.0204;9.8065;0.1114;-8.0E-4;-0.0587;0.0;0.05;-0.02;54.5;-19.25;4.31;-27.81;78.0;-0.12;0.19;5.0;32.061;;;;NaN;;;;0 / 0;3463;2022-11-17 13:45:01:639
0.0841;0.0028;9.7578;-0.0243;0.0192;9.8066;0.0929;-0.0192;-0.0685;0.0;0.05;-0.02;54.5;-19.25;4.31;-27.81;78.0;-0.12;0.19;5.0;32.061;;;;NaN;;;;0 / 0;3472;2022-11-17 13:45:01:648
0.0841;0.0028;9.7578;-0.0243;0.0192;9.8066;0.0929;-0.0192;-0.0685;0.0;0.05;-0.02;54.5;-19.25;4.31;-27.81;78.0;-0.12;0.19;5.0;32.061;;;;NaN;;;;0 / 0;3482;2022-11-17 13:45:01:658
0.0841;0.0028;9.7578;-0.0243;0.0192;9.8066;0.0929;-0.0192;-0.0685;0.0;0.05;-0.02;54.5;-19.25;4.31;-27.81;78.0;-0.12;0.19;5.0;32.061;;;;NaN;;;;0 / 0;3492;2022-11-17 13:45:01:668
0.0841;0.0028;9.7578;-0.0243;0.0192;9.8066;0.0929;-0.0192;-0.0685;0.0;0.05;-0.02;54.5;-19.25;4.31;-27.81;78.0;-0.12;0.19;5.0;32.061;;;;NaN;;;;0 / 0;3502;2022-11-17 13:45:01:678
0.0841;0.0028;9.7578;-0.0243;0.0192;9.8066;0.0929;-0.0192;-0.0685;0.03;0.02;0.01;54.5;-19.25;4.31;-27.81;78.0;-0.12;0.19;5.0;32.061;;;;NaN;;;;0 / 0;3512;2022-11-17 13:45:01:688
0.0841;0.0028;9.7578;-0.0243;0.0192;9.8066;0.0929;-0.0192;-0.0685;0.03;0.02;0.01;54.5;-19.25;4.31;-27.81;78.0;-0.12;0.19;5.0;32.061;;;;NaN;;;;0 / 0;3522;2022-11-17 13:45:01:698
0.0841;0.0028;9.7578;-0.0243;0.0192;9.8066;0.0929;-0.0192;-0.0685;0.03;0.02;0.01;54.5;-19.25;4.31;-27.81;78.0;-0.12;0.19;5.0;32.061;;;;NaN;;;;0 / 0;3532;2022-11-17 13:45:01:708
0.0841;0.0028;9.7578;-0.0243;0.0192;9.8066;0.0929;-0.0192;-0.0685;0.03;0.02;0.01;54.5;-19.25;4.31;-27.81;78.0;-0.12;0.19;5.0;32.061;;;;NaN;;;;0 / 0;3542;2022-11-17 13:45:01:718
0.0841;0.0028;9.7578;-0.0243;0.0192;9.8066;0.0929;-0.0192;-0.0685;0.03;0.02;0.01;54.5;-19.62;4.13;-27.69;78.58;-0.11;0.14;5.0;32.061;;;;NaN;;;;0 / 0;3553;2022-11-17 13:45:01:729
0.0841;0.0028;9.7578;-0.0243;0.0192;9.8066;0.0929;-0.0192;-0.0685;0.03;0.02;0.01;54.5;-19.62;4.13;-27.69;78.58;-0.11;0.14;5.0;32.061;;;;NaN;;;;0 / 0;3562;2022-11-17 13:45:01:738
0.0841;0.0028;9.7578;-0.0164;0.0179;9.8066;0.0851;-0.0179;-0.0784;0.03;0.02;0.01;54.5;-19.62;4.13;-27.69;78.58;-0.11;0.14;5.0;31.621;;;;NaN;;;;0 / 0;3572;2022-11-17 13:45:01:748
0.0765;0.0217;9.7263;-0.0164;0.0179;9.8066;0.0851;-0.0179;-0.0784;0.03;0.02;0.01;54.5;-19.62;4.13;-27.69;78.58;-0.11;0.14;5.0;31.621;;;;NaN;;;;0 / 0;3582;2022-11-17 13:45:01:758
0.0765;0.0217;9.7263;-0.0164;0.0179;9.8066;0.0851;-0.0179;-0.0784;0.03;0.02;0.01;54.5;-19.62;4.13;-27.69;78.58;-0.11;0.14;5.0;31.621;;;;NaN;;;;0 / 0;3592;2022-11-17 13:45:01:768
0.0765;0.0217;9.7263;-0.0164;0.0179;9.8066;0.0851;-0.0179;-0.0784;0.03;0.02;0.01;54.5;-19.62;4.13;-27.69;78.58;-0.11;0.14;5.0;31.621;;;;NaN;;;;0 / 0;3603;2022-11-17 13:45:01:779
0.0765;0.0217;9.7263;-0.0164;0.0179;9.8066;0.0851;-0.0179;-0.0784;0.03;0.02;0.01;54.5;-19.62;4.13;-27.69;78.58;-0.11;0.14;5.0;31.621;;;;NaN;;;;0 / 0;3613;2022-11-17 13:45:01:789
0.0765;0.0217;9.7263;-0.0164;0.0179;9.8066;0.0851;-0.0179;-0.0784;0.03;0.02;0.01;54.5;-19.62;4.13;-27.69;78.58;-0.11;0.14;5.0;31.621;;;;NaN;;;;0 / 0;3623;2022-11-17 13:45:01:799
0.0765;0.0217;9.7263;-0.0164;0.0179;9.8066;0.0851;-0.0179;-0.0784;0.03;0.02;0.01;54.5;-19.62;4.13;-27.69;78.58;-0.11;0.14;5.0;31.621;;;;NaN;;;;0 / 0;3632;2022-11-17 13:45:01:808
0.0765;0.0217;9.7263;-0.0164;0.0179;9.8066;0.0851;-0.0179;-0.0784;-0.03;0.05;-0.02;54.5;-19.62;4.13;-27.69;78.58;-0.11;0.14;5.0;31.621;;;;NaN;;;;0 / 0;3642;2022-11-17 13:45:01:818
0.0765;0.0217;9.7263;-0.0164;0.0179;9.8066;0.0851;-0.0179;-0.0784;-0.03;0.05;-0.02;54.5;-19.62;4.13;-27.69;78.58;-0.11;0.14;5.0;31.621;;;;NaN;;;;0 / 0;3652;2022-11-17 13:45:01:828
0.0765;0.0217;9.7263;-0.0164;0.0179;9.8066;0.0851;-0.0179;-0.0784;-0.03;0.05;-0.02;54.5;-19.62;4.13;-27.69;78.58;-0.11;0.14;5.0;31.621;;;;NaN;;;;0 / 0;3662;2022-11-17 13:45:01:838
0.0765;0.0217;9.7263;-0.0112;0.0172;9.8066;0.0602;0.0023;-0.0588;-0.03;0.05;-0.02;54.5;-19.37;4.5;-27.81;75.15;-0.1;0.1;5.0;31.621;;;;NaN;;;;0 / 0;3673;2022-11-17 13:45:01:849
0.0765;0.0217;9.7263;-0.0112;0.0172;9.8066;0.0602;0.0023;-0.0588;-0.03;0.05;-0.02;54.4;-19.37;4.5;-27.81;75.15;-0.1;0.1;5.0;31.621;;;;NaN;;;;0 / 0;3683;2022-11-17 13:45:01:859
0.0765;0.0217;9.7263;-0.0112;0.0172;9.8066;0.0602;0.0023;-0.0588;-0.03;0.05;-0.02;54.4;-19.37;4.5;-27.81;75.15;-0.1;0.1;5.0;31.621;;;;NaN;;;;0 / 0;3692;2022-11-17 13:45:01:868
0.0765;0.0217;9.7263;-0.0112;0.0172;9.8066;0.0602;0.0023;-0.0588;-0.03;0.05;-0.02;54.4;-19.37;4.5;-27.81;75.15;-0.1;0.1;5.0;31.621;;;;NaN;;;;0 / 0;3702;2022-11-17 13:45:01:878
0.0692;0.014;9.74;-0.0112;0.0172;9.8066;0.0602;0.0023;-0.0588;-0.03;0.05;-0.02;54.4;-19.37;4.5;-27.81;75.15;-0.1;0.1;5.0;31.621;;;;NaN;;;;0 / 0;3713;2022-11-17 13:45:01:889
0.0692;0.014;9.74;-0.0112;0.0172;9.8066;0.0602;0.0023;-0.0588;-0.03;0.05;-0.02;54.4;-19.37;4.5;-27.81;75.15;-0.1;0.1;5.0;31.621;;;;NaN;;;;0 / 0;3722;2022-11-17 13:45:01:898
0.0692;0.014;9.74;-0.0112;0.0172;9.8066;0.0602;0.0023;-0.0588;-0.03;0.05;-0.02;54.4;-19.37;4.5;-27.81;75.15;-0.1;0.1;5.0;31.621;;;;NaN;;;;0 / 0;3733;2022-11-17 13:45:01:909
0.0692;0.014;9.74;-0.0112;0.0172;9.8066;0.0602;0.0023;-0.0588;-0.03;0.05;-0.02;54.4;-19.37;4.5;-27.81;75.15;-0.1;0.1;5.0;31.621;;;;NaN;;;;0 / 0;3742;2022-11-17 13:45:01:918
0.0692;0.014;9.74;-0.0112;0.0172;9.8066;0.0602;0.0023;-0.0588;-0.03;0.05;-0.02;54.4;-19.37;4.5;-27.81;75.15;-0.1;0.1;5.0;31.621;;;;NaN;;;;0 / 0;3752;2022-11-17 13:45:01:928
0.0692;0.014;9.74;-0.0112;0.0172;9.8066;0.0602;0.0023;-0.0588;-0.03;0.05;-0.02;54.4;-19.37;4.5;-27.81;75.15;-0.1;0.1;5.0;31.621;;;;NaN;;;;0 / 0;3762;2022-11-17 13:45:01:938
0.0692;0.014;9.74;-0.0055;0.0163;9.8066;0.0644;-0.0065;-0.0686;0.06;-0.01;0.07;54.4;-19.37;4.5;-27.81;75.15;-0.1;0.1;5.0;31.621;;;;NaN;;;;0 / 0;3773;2022-11-17 13:45:01:949
0.0692;0.014;9.74;-0.0055;0.0163;9.8066;0.0644;-0.0065;-0.0686;0.06;-0.01;0.07;54.4;-19.37;4.5;-27.81;75.15;-0.1;0.1;5.0;31.621;;;;NaN;;;;0 / 0;3783;2022-11-17 13:45:01:959
0.0692;0.014;9.74;-0.0055;0.0163;9.8066;0.0644;-0.0065;-0.0686;0.06;-0.01;0.07;54.4;-19.25;4.19;-27.69;77.99;-0.1;0.03;5.0;31.621;;;;NaN;;;;0 / 0;3792;2022-11-17 13:45:01:968
0.0692;0.014;9.74;-0.0055;0.0163;9.8066;0.0644;-0.0065;-0.0686;0.06;-0.01;0.07;54.4;-19.25;4.19;-27.69;77.99;-0.1;0.03;5.0;31.621;;;;NaN;;;;0 / 0;3802;2022-11-17 13:45:01:978
0.0692;0.014;9.74;-0.0055;0.0163;9.8066;0.0644;-0.0065;-0.0686;0.06;-0.01;0.07;54.4;-19.25;4.19;-27.69;77.99;-0.1;0.03;5.0;31.621;;;;NaN;;;;0 / 0;3812;2022-11-17 13:45:01:988
0.0692;0.014;9.74;-0.0055;0.0163;9.8066;0.0644;-0.0065;-0.0686;0.06;-0.01;0.07;54.4;-19.25;4.19;-27.69;77.99;-0.1;0.03;5.0;31.621;;;;NaN;;;;0 / 0;3823;2022-11-17 13:45:01:999
0.0692;0.014;9.74;-0.0055;0.0163;9.8066;0.0644;-0.0065;-0.0686;0.06;-0.01;0.07;54.4;-19.25;4.19;-27.69;77.99;-0.1;0.03;5.0;31.621;;;;NaN;;;;0 / 0;3833;2022-11-17 13:45:02:009
0.0671;0.0155;9.758;-0.0055;0.0163;9.8066;0.0644;-0.0065;-0.0686;0.06;-0.01;0.07;54.4;-19.25;4.19;-27.69;77.99;-0.1;0.03;5.0;31.621;;;;NaN;;;;0 / 0;3842;2022-11-17 13:45:02:018
0.0671;0.0155;9.758;-0.0055;0.0163;9.8066;0.0644;-0.0065;-0.0686;0.06;-0.01;0.07;54.4;-19.25;4.19;-27.69;77.99;-0.1;0.03;5.0;31.621;;;;NaN;;;;0 / 0;3853;2022-11-17 13:45:02:029
0.0671;0.0155;9.758;-0.0055;0.0163;9.8066;0.0644;-0.0065;-0.0686;0.06;-0.01;0.07;54.4;-19.25;4.19;-27.69;77.99;-0.1;0.03;5.0;31.621;;;;NaN;;;;0 / 0;3862;2022-11-17 13:45:02:038
0.0671;0.0155;9.758;-2.0E-4;0.0155;9.8066;0.0492;0.004;-0.0588;0.06;-0.01;0.07;54.4;-19.25;4.19;-27.69;77.99;-0.1;0.03;5.0;31.621;;;;NaN;;;;0 / 0;3873;2022-11-17 13:45:02:049
0.0671;0.0155;9.758;-2.0E-4;0.0155;9.8066;0.0492;0.004;-0.0588;0.06;-0.01;0.07;54.4;-19.25;4.19;-27.69;77.99;-0.1;0.03;5.0;31.621;;;;NaN;;;;0 / 0;3882;2022-11-17 13:45:02:058
0.0671;0.0155;9.758;-2.0E-4;0.0155;9.8066;0.0492;0.004;-0.0588;0.06;-0.01;0.07;54.4;-19.25;4.19;-27.69;77.99;-0.1;0.03;5.0;31.621;;;;NaN;;;;0 / 0;3892;2022-11-17 13:45:02:068
0.0671;0.0155;9.758;-2.0E-4;0.0155;9.8066;0.0492;0.004;-0.0588;0.06;-0.01;0.07;54.4;-19.25;4.19;-27.69;77.99;-0.1;0.03;5.0;31.621;;;;NaN;;;;0 / 0;3903;2022-11-17 13:45:02:079
0.0671;0.0155;9.758;-2.0E-4;0.0155;9.8066;0.0492;0.004;-0.0588;0.03;0.05;-0.02;54.4;-19.62;4.19;-27.25;78.57;-0.09;0.0;5.0;31.621;;;;NaN;;;;0 / 0;3912;2022-11-17 13:45:02:088
0.0671;0.0155;9.758;-2.0E-4;0.0155;9.8066;0.0492;0.004;-0.0588;0.03;0.05;-0.02;54.4;-19.62;4.19;-27.25;78.57;-0.09;0.0;5.0;31.135;;;;NaN;;;;0 / 0;3922;2022-11-17 13:45:02:098
0.0671;0.0155;9.758;-2.0E-4;0.0155;9.8066;0.0492;0.004;-0.0588;0.03;0.05;-0.02;54.4;-19.62;4.19;-27.25;78.57;-0.09;0.0;5.0;31.135;;;;NaN;;;;0 / 0;3932;2022-11-17 13:45:02:108
0.0671;0.0155;9.758;-2.0E-4;0.0155;9.8066;0.0492;0.004;-0.0588;0.03;0.05;-0.02;54.4;-19.62;4.19;-27.25;78.57;-0.09;0.0;5.0;31.135;;;;NaN;;;;0 / 0;3943;2022-11-17 13:45:02:119
0.0671;0.0155;9.758;-2.0E-4;0.0155;9.8066;0.0492;0.004;-0.0588;0.03;0.05;-0.02;54.4;-19.62;4.19;-27.25;78.57;-0.09;0.0;5.0;31.135;;;;NaN;;;;0 / 0;3953;2022-11-17 13:45:02:129
0.0671;0.0155;9.758;-2.0E-4;0.0155;9.8066;0.0492;0.004;-0.0588;0.03;0.05;-0.02;54.4;-19.62;4.19;-27.25;78.57;-0.09;0.0;5.0;31.135;;;;NaN;;;;0 / 0;3962;2022-11-17 13:45:02:138
0.0785;0.0155;9.7464;0.0043;0.0144;9.8066;0.074;-0.0144;-0.0686;0.03;0.05;-0.02;54.4;-19.62;4.19;-27.25;78.57;-0.09;0.0;5.0;31.135;;;;NaN;;;;0 / 0;3972;2022-11-17 13:45:02:148
0.0785;0.0155;9.7464;0.0043;0.0144;9.8066;0.074;-0.0144;-0.0686;0.03;0.05;-0.02;54.4;-19.62;4.19;-27.25;78.57;-0.09;0.0;5.0;31.135;;;;NaN;;;;0 / 0;3982;2022-11-17 13:45:02:158
0.0785;0.0155;9.7464;0.0043;0.0144;9.8066;0.074;-0.0144;-0.0686;0.03;0.05;-0.02;54.4;-19.62;4.19;-27.25;78.57;-0.09;0.0;5.0;31.135;;;;NaN;;;;0 / 0;3992;2022-11-17 13:45:02:168
0.0785;0.0155;9.7464;0.0043;0.0144;9.8066;0.074;-0.0144;-0.0686;0.03;0.05;-0.02;54.4;-19.62;4.19;-27.25;78.57;-0.09;0.0;5.0;31.135;;;;NaN;;;;0 / 0;4002;2022-11-17 13:45:02:178
0.0785;0.0155;9.7464;0.0043;0.0144;9.8066;0.074;-0.0144;-0.0686;0.03;0.05;-0.02;54.4;-19.62;4.19;-27.25;78.57;-0.09;0.0;5.0;31.135;;;;NaN;;;;0 / 0;4013;2022-11-17 13:45:02:189
0.0785;0.0155;9.7464;0.0043;0.0144;9.8066;0.074;-0.0144;-0.0686;0.03;0.05;-0.02;54.4;-19.62;4.19;-27.25;78.57;-0.09;0.0;5.0;31.135;;;;NaN;;;;0 / 0;4022;2022-11-17 13:45:02:198
0.0785;0.0155;9.7464;0.0043;0.0144;9.8066;0.074;-0.0144;-0.0686;0.03;0.05;-0.02;53.5;-19.25;4.0;-27.56;77.99;-0.08;-0.03;5.0;31.135;;;;NaN;;;;0 / 0;4032;2022-11-17 13:45:02:208
0.0785;0.0155;9.7464;0.0043;0.0144;9.8066;0.074;-0.0144;-0.0686;0.03;-0.01;0.01;53.5;-19.25;4.0;-27.56;77.99;-0.08;-0.03;5.0;31.135;;;;NaN;;;;0 / 0;4042;2022-11-17 13:45:02:218
0.0785;0.0155;9.7464;0.0043;0.0144;9.8066;0.074;-0.0144;-0.0686;0.03;-0.01;0.01;53.5;-19.25;4.0;-27.56;77.99;-0.08;-0.03;5.0;31.135;;;;NaN;;;;0 / 0;4052;2022-11-17 13:45:02:228
0.0785;0.0155;9.7464;0.0043;0.0144;9.8066;0.074;-0.0144;-0.0686;0.03;-0.01;0.01;53.5;-19.25;4.0;-27.56;77.99;-0.08;-0.03;5.0;31.135;;;;NaN;;;;0 / 0;4062;2022-11-17 13:45:02:238
0.0785;0.0155;9.7464;0.0088;0.0135;9.8066;0.0597;-0.0135;-0.0686;0.03;-0.01;0.01;53.5;-19.25;4.0;-27.56;77.99;-0.08;-0.03;5.0;31.135;;;;NaN;;;;0 / 0;4073;2022-11-17 13:45:02:249
0.0785;0.0155;9.7464;0.0088;0.0135;9.8066;0.0597;-0.0135;-0.0686;0.03;-0.01;0.01;53.5;-19.25;4.0;-27.56;77.99;-0.08;-0.03;5.0;31.135;;;;NaN;;;;0 / 0;4082;2022-11-17 13:45:02:258
0.0785;0.0155;9.7464;0.0088;0.0135;9.8066;0.0597;-0.0135;-0.0686;0.03;-0.01;0.01;53.5;-19.25;4.0;-27.56;77.99;-0.08;-0.03;5.0;31.135;;;;NaN;;;;0 / 0;4093;2022-11-17 13:45:02:269
0.0762;0.0182;9.7454;0.0088;0.0135;9.8066;0.0597;-0.0135;-0.0686;0.03;-0.01;0.01;53.5;-19.25;4.0;-27.56;77.99;-0.08;-0.03;5.0;31.135;;;;NaN;;;;0 / 0;4102;2022-11-17 13:45:02:278
0.0762;0.0182;9.7454;0.0088;0.0135;9.8066;0.0597;-0.0135;-0.0686;0.03;-0.01;0.01;53.5;-19.25;4.0;-27.56;77.99;-0.08;-0.03;5.0;31.135;;;;NaN;;;;0 / 0;4112;2022-11-17 13:45:02:288
0.0762;0.0182;9.7454;0.0088;0.0135;9.8066;0.0597;-0.0135;-0.0686;0.03;-0.01;0.01;53.5;-19.25;4.0;-27.56;77.99;-0.08;-0.03;5.0;31.135;;;;NaN;;;;0 / 0;4122;2022-11-17 13:45:02:298
0.0762;0.0182;9.7454;0.0088;0.0135;9.8066;0.0597;-0.0135;-0.0686;0.03;-0.01;0.01;53.5;-19.25;4.0;-27.56;77.99;-0.08;-0.03;5.0;31.135;;;;NaN;;;;0 / 0;4132;2022-11-17 13:45:02:308
0.0762;0.0182;9.7454;0.0088;0.0135;9.8066;0.0597;-0.0135;-0.0686;0.03;-0.01;0.01;53.5;-19.25;4.0;-27.56;77.99;-0.08;-0.03;5.0;31.135;;;;NaN;;;;0 / 0;4143;2022-11-17 13:45:02:319
0.0762;0.0182;9.7454;0.0088;0.0135;9.8066;0.0597;-0.0135;-0.0686;0.03;-0.01;0.01;53.5;-19.5;4.0;-27.25;77.99;-0.08;-0.05;5.0;31.135;;;;NaN;;;;0 / 0;4152;2022-11-17 13:45:02:328
0.0762;0.0182;9.7454;0.0088;0.0135;9.8066;0.0597;-0.0135;-0.0686;0.03;-0.01;0.01;53.5;-19.5;4.0;-27.25;77.99;-0.08;-0.05;5.0;31.135;;;;NaN;;;;0 / 0;4162;2022-11-17 13:45:02:338
0.0762;0.0182;9.7454;0.0125;0.0129;9.8066;0.0561;-0.0031;-0.0588;0.0;-0.1;0.01;53.5;-19.5;4.0;-27.25;77.99;-0.08;-0.05;5.0;31.135;;;;NaN;;;;0 / 0;4172;2022-11-17 13:45:02:348
0.0762;0.0182;9.7454;0.0125;0.0129;9.8066;0.0561;-0.0031;-0.0588;0.0;-0.1;0.01;53.5;-19.5;4.0;-27.25;77.99;-0.08;-0.05;5.0;31.135;;;;NaN;;;;0 / 0;4182;2022-11-17 13:45:02:358
0.0762;0.0182;9.7454;0.0125;0.0129;9.8066;0.0561;-0.0031;-0.0588;0.0;-0.1;0.01;53.5;-19.5;4.0;-27.25;77.99;-0.08;-0.05;5.0;31.135;;;;NaN;;;;0 / 0;4192;2022-11-17 13:45:02:368
0.0762;0.0182;9.7454;0.0125;0.0129;9.8066;0.0561;-0.0031;-0.0588;0.0;-0.1;0.01;53.5;-19.5;4.0;-27.25;77.99;-0.08;-0.05;5.0;31.135;;;;NaN;;;;0 / 0;4203;2022-11-17 13:45:02:379
0.0762;0.0182;9.7454;0.0125;0.0129;9.8066;0.0561;-0.0031;-0.0588;0.0;-0.1;0.01;53.5;-19.5;4.0;-27.25;77.99;-0.08;-0.05;5.0;31.135;;;;NaN;;;;0 / 0;4213;2022-11-17 13:45:02:389
0.0762;0.0182;9.7454;0.0125;0.0129;9.8066;0.0561;-0.0031;-0.0588;0.0;-0.1;0.01;53.5;-19.5;4.0;-27.25;77.99;-0.08;-0.05;5.0;31.135;;;;NaN;;;;0 / 0;4222;2022-11-17 13:45:02:398
0.0762;0.0182;9.7454;0.0125;0.0129;9.8066;0.0561;-0.0031;-0.0588;0.0;-0.1;0.01;53.5;-19.5;4.0;-27.25;77.99;-0.08;-0.05;5.0;30.818;;;;NaN;;;;0 / 0;4232;2022-11-17 13:45:02:408
0.0743;0.0082;9.7427;0.0125;0.0129;9.8066;0.0561;-0.0031;-0.0588;0.0;-0.1;0.01;53.5;-19.5;4.0;-27.25;77.99;-0.08;-0.05;5.0;30.818;;;;NaN;;;;0 / 0;4242;2022-11-17 13:45:02:418
0.0743;0.0082;9.7427;0.0125;0.0129;9.8066;0.0561;-0.0031;-0.0588;0.0;-0.1;0.01;53.5;-19.5;4.0;-27.25;77.99;-0.08;-0.05;5.0;30.818;;;;NaN;;;;0 / 0;4252;2022-11-17 13:45:02:428
0.0743;0.0082;9.7427;0.0125;0.0129;9.8066;0.0561;-0.0031;-0.0588;0.0;-0.1;0.01;53.5;-19.5;4.0;-27.25;77.99;-0.08;-0.05;5.0;30.818;;;;NaN;;;;0 / 0;4262;2022-11-17 13:45:02:438
0.0743;0.0082;9.7427;0.0166;0.013;9.8066;0.0519;-0.0032;-0.0686;0.0;-0.1;0.01;53.5;-19.12;4.06;-27.81;77.98;-0.08;-0.07;5.0;30.818;;;;NaN;;;;0 / 0;4273;2022-11-17 13:45:02:449
0.0743;0.0082;9.7427;0.0166;0.013;9.8066;0.0519;-0.0032;-0.0686;0.0;-0.1;0.01;53.5;-19.12;4.06;-27.81;77.98;-0.08;-0.07;5.0;30.818;;;;NaN;;;;0 / 0;4283;2022-11-17 13:45:02:459
0.0743;0.0082;9.7427;0.0166;0.013;9.8066;0.0519;-0.0032;-0.0686;0.0;-0.1;0.01;53.5;-19.12;4.06;-27.81;77.98;-0.08;-0.07;5.0;30.818;;;;NaN;;;;0 / 0;4292;2022-11-17 13:45:02:468
0.0743;0.0082;9.7427;0.0166;0.013;9.8066;0.0519;-0.0032;-0.0686;0.03;-0.01;-0.02;53.5;-19.12;4.06;-27.81;77.98;-0.08;-0.07;5.0;30.818;;;;NaN;;;;0 / 0;4303;2022-11-17 13:45:02:479
0.0743;0.0082;9.7427;0.0166;0.013;9.8066;0.0519;-0.0032;-0.0686;0.03;-0.01;-0.02;53.5;-19.12;4.06;-27.81;77.98;-0.08;-0.07;5.0;30.818;;;;NaN;;;;0 / 0;4312;2022-11-17 13:45:02:488
0.0743;0.0082;9.7427;0.0166;0.013;9.8066;0.0519;-0.0032;-0.0686;0.03;-0.01;-0.02;53.5;-19.12;4.06;-27.81;77.98;-0.08;-0.07;5.0;30.818;;;;NaN;;;;0 / 0;4326;2022-11-17 13:45:02:502
0.0743;0.0082;9.7427;0.0166;0.013;9.8066;0.0519;-0.0032;-0.0686;0.03;-0.01;-0.02;53.5;-19.12;4.06;-27.81;77.98;-0.08;-0.07;5.0;30.818;;;;NaN;;;;0 / 0;4332;2022-11-17 13:45:02:508
0.0743;0.0082;9.7427;0.0166;0.013;9.8066;0.0519;-0.0032;-0.0686;0.03;-0.01;-0.02;53.5;-19.12;4.06;-27.81;77.98;-0.08;-0.07;5.0;30.818;;;;NaN;;;;0 / 0;4342;2022-11-17 13:45:02:518
0.0743;0.0082;9.7427;0.0166;0.013;9.8066;0.0519;-0.0032;-0.0686;0.03;-0.01;-0.02;53.5;-19.12;4.06;-27.81;77.98;-0.08;-0.07;5.0;30.818;;;;NaN;;;;0 / 0;4352;2022-11-17 13:45:02:528
0.0743;0.0082;9.7427;0.0166;0.013;9.8066;0.0519;-0.0032;-0.0686;0.03;-0.01;-0.02;53.5;-19.12;4.06;-27.81;77.98;-0.08;-0.07;5.0;30.818;;;;NaN;;;;0 / 0;4362;2022-11-17 13:45:02:538
0.0841;0.0128;9.754;0.0202;0.0127;9.8066;0.0581;-0.0029;-0.0588;0.03;-0.01;-0.02;53.5;-19.12;4.06;-27.81;77.98;-0.08;-0.07;5.0;30.818;;;;NaN;;;;0 / 0;4372;2022-11-17 13:45:02:548
0.0841;0.0128;9.754;0.0202;0.0127;9.8066;0.0581;-0.0029;-0.0588;0.03;-0.01;-0.02;54.5;-19.12;4.06;-27.81;77.98;-0.08;-0.07;5.0;30.818;;;;NaN;;;;0 / 0;4382;2022-11-17 13:45:02:558
0.0841;0.0128;9.754;0.0202;0.0127;9.8066;0.0581;-0.0029;-0.0588;0.03;-0.01;-0.02;54.5;-19.0;4.38;-26.81;77.98;-0.07;-0.12;5.0;30.818;;;;NaN;;;;0 / 0;4393;2022-11-17 13:45:02:569
0.0841;0.0128;9.754;0.0202;0.0127;9.8066;0.0581;-0.0029;-0.0588;0.03;-0.01;-0.02;54.5;-19.0;4.38;-26.81;77.98;-0.07;-0.12;5.0;30.818;;;;NaN;;;;0 / 0;4403;2022-11-17 13:45:02:579
0.0841;0.0128;9.754;0.0202;0.0127;9.8066;0.0581;-0.0029;-0.0588;0.03;-0.01;-0.02;54.5;-19.0;4.38;-26.81;77.98;-0.07;-0.12;5.0;30.818;;;;NaN;;;;0 / 0;4412;2022-11-17 13:45:02:588
0.0841;0.0128;9.754;0.0202;0.0127;9.8066;0.0581;-0.0029;-0.0588;0.03;-0.01;-0.02;54.5;-19.0;4.38;-26.81;77.98;-0.07;-0.12;5.0;30.818;;;;NaN;;;;0 / 0;4422;2022-11-17 13:45:02:598
0.0841;0.0128;9.754;0.0202;0.0127;9.8066;0.0581;-0.0029;-0.0588;0.0;-0.04;-0.05;54.5;-19.0;4.38;-26.81;77.98;-0.07;-0.12;5.0;30.818;;;;NaN;;;;0 / 0;4433;2022-11-17 13:45:02:609
0.0841;0.0128;9.754;0.0202;0.0127;9.8066;0.0581;-0.0029;-0.0588;0.0;-0.04;-0.05;54.5;-19.0;4.38;-26.81;77.98;-0.07;-0.12;5.0;30.818;;;;NaN;;;;0 / 0;4443;2022-11-17 13:45:02:619
0.0841;0.0128;9.754;0.0202;0.0127;9.8066;0.0581;-0.0029;-0.0588;0.0;-0.04;-0.05;54.5;-19.0;4.38;-26.81;77.98;-0.07;-0.12;5.0;30.818;;;;NaN;;;;0 / 0;4452;2022-11-17 13:45:02:628
0.0841;0.0128;9.754;0.0202;0.0127;9.8066;0.0581;-0.0029;-0.0588;0.0;-0.04;-0.05;54.5;-19.0;4.38;-26.81;77.98;-0.07;-0.12;5.0;30.818;;;;NaN;;;;0 / 0;4462;2022-11-17 13:45:02:638
0.0841;0.0128;9.754;0.0232;0.0119;9.8066;0.0453;-0.0119;-0.0588;0.0;-0.04;-0.05;54.5;-19.0;4.38;-26.81;77.98;-0.07;-0.12;5.0;30.818;;;;NaN;;;;0 / 0;4472;2022-11-17 13:45:02:648
0.0841;0.0128;9.754;0.0232;0.0119;9.8066;0.0453;-0.0119;-0.0588;0.0;-0.04;-0.05;54.5;-19.0;4.38;-26.81;77.98;-0.07;-0.12;5.0;30.818;;;;NaN;;;;0 / 0;4482;2022-11-17 13:45:02:658
0.0841;0.0128;9.754;0.0232;0.0119;9.8066;0.0453;-0.0119;-0.0588;0.0;-0.04;-0.05;54.5;-19.0;4.38;-26.81;77.98;-0.07;-0.12;5.0;30.818;;;;NaN;;;;0 / 0;4492;2022-11-17 13:45:02:668
0.084;0.0124;9.7414;0.0232;0.0119;9.8066;0.0453;-0.0119;-0.0588;0.0;-0.04;-0.05;54.5;-19.0;4.38;-26.81;77.98;-0.07;-0.12;5.0;30.818;;;;NaN;;;;0 / 0;4503;2022-11-17 13:45:02:679
0.084;0.0124;9.7414;0.0232;0.0119;9.8066;0.0453;-0.0119;-0.0588;0.0;-0.04;-0.05;54.5;-19.69;4.56;-27.5;75.83;-0.07;-0.14;5.0;30.818;;;;NaN;;;;0 / 0;4512;2022-11-17 13:45:02:688
0.084;0.0124;9.7414;0.0232;0.0119;9.8066;0.0453;-0.0119;-0.0588;0.0;-0.04;-0.05;54.5;-19.69;4.56;-27.5;75.83;-0.07;-0.14;5.0;30.818;;;;NaN;;;;0 / 0;4522;2022-11-17 13:45:02:698
0.084;0.0124;9.7414;0.0232;0.0119;9.8066;0.0453;-0.0119;-0.0588;0.0;-0.04;-0.05;54.5;-19.69;4.56;-27.5;75.83;-0.07;-0.14;5.0;30.818;;;;NaN;;;;0 / 0;4532;2022-11-17 13:45:02:708
0.084;0.0124;9.7414;0.0232;0.0119;9.8066;0.0453;-0.0119;-0.0588;0.0;-0.04;-0.05;54.5;-19.69;4.56;-27.5;75.83;-0.07;-0.14;5.0;30.818;;;;NaN;;;;0 / 0;4542;2022-11-17 13:45:02:718
0.084;0.0124;9.7414;0.0232;0.0119;9.8066;0.0453;-0.0119;-0.0588;0.0;-0.04;-0.05;54.5;-19.69;4.56;-27.5;75.83;-0.07;-0.14;5.0;31.428;;;;NaN;;;;0 / 0;4552;2022-11-17 13:45:02:728
0.084;0.0124;9.7414;0.0232;0.0119;9.8066;0.0453;-0.0119;-0.0588;0.0;-0.04;-0.05;54.5;-19.69;4.56;-27.5;75.83;-0.07;-0.14;5.0;31.428;;;;NaN;;;;0 / 0;4563;2022-11-17 13:45:02:739
0.084;0.0124;9.7414;0.0258;0.0112;9.8066;0.0526;-0.0014;-0.0587;0.03;0.02;0.04;54.5;-19.69;4.56;-27.5;75.83;-0.07;-0.14;5.0;31.428;;;;NaN;;;;0 / 0;4572;2022-11-17 13:45:02:748
0.084;0.0124;9.7414;0.0258;0.0112;9.8066;0.0526;-0.0014;-0.0587;0.03;0.02;0.04;54.5;-19.69;4.56;-27.5;75.83;-0.07;-0.14;5.0;31.428;;;;NaN;;;;0 / 0;4582;2022-11-17 13:45:02:758
0.084;0.0124;9.7414;0.0258;0.0112;9.8066;0.0526;-0.0014;-0.0587;0.03;0.02;0.04;54.5;-19.69;4.56;-27.5;75.83;-0.07;-0.14;5.0;31.428;;;;NaN;;;;0 / 0;4593;2022-11-17 13:45:02:769
0.084;0.0124;9.7414;0.0258;0.0112;9.8066;0.0526;-0.0014;-0.0587;0.03;0.02;0.04;54.5;-19.69;4.56;-27.5;75.83;-0.07;-0.14;5.0;31.428;;;;NaN;;;;0 / 0;4603;2022-11-17 13:45:02:779
0.084;0.0124;9.7414;0.0258;0.0112;9.8066;0.0526;-0.0014;-0.0587;0.03;0.02;0.04;54.5;-19.69;4.56;-27.5;75.83;-0.07;-0.14;5.0;31.428;;;;NaN;;;;0 / 0;4612;2022-11-17 13:45:02:788
0.084;0.0124;9.7414;0.0258;0.0112;9.8066;0.0526;-0.0014;-0.0587;0.03;0.02;0.04;54.5;-19.69;4.56;-27.5;75.83;-0.07;-0.14;5.0;31.428;;;;NaN;;;;0 / 0;4622;2022-11-17 13:45:02:798
0.0757;0.0112;9.7482;0.0258;0.0112;9.8066;0.0526;-0.0014;-0.0587;0.03;0.02;0.04;54.5;-19.75;4.25;-27.75;78.56;-0.07;-0.15;5.0;31.428;;;;NaN;;;;0 / 0;4632;2022-11-17 13:45:02:808
0.0757;0.0112;9.7482;0.0258;0.0112;9.8066;0.0526;-0.0014;-0.0587;0.03;0.02;0.04;54.5;-19.75;4.25;-27.75;78.56;-0.07;-0.15;5.0;31.428;;;;NaN;;;;0 / 0;4642;2022-11-17 13:45:02:818
0.0757;0.0112;9.7482;0.0258;0.0112;9.8066;0.0526;-0.0014;-0.0587;0.03;0.02;0.04;54.5;-19.75;4.25;-27.75;78.56;-0.07;-0.15;5.0;31.428;;;;NaN;;;;0 / 0;4652;2022-11-17 13:45:02:828
0.0757;0.0112;9.7482;0.0258;0.0112;9.8066;0.0526;-0.0014;-0.0587;0.03;0.02;0.04;54.5;-19.75;4.25;-27.75;78.56;-0.07;-0.15;5.0;31.428;;;;NaN;;;;0 / 0;4663;2022-11-17 13:45:02:839
0.0757;0.0112;9.7482;0.0284;0.0106;9.8066;0.05;-0.0106;-0.0685;0.03;0.02;0.04;54.5;-19.75;4.25;-27.75;78.56;-0.07;-0.15;5.0;31.428;;;;NaN;;;;0 / 0;4672;2022-11-17 13:45:02:848
0.0757;0.0112;9.7482;0.0284;0.0106;9.8066;0.05;-0.0106;-0.0685;0.03;0.02;0.04;54.5;-19.75;4.25;-27.75;78.56;-0.07;-0.15;5.0;31.428;;;;NaN;;;;0 / 0;4682;2022-11-17 13:45:02:858
0.0757;0.0112;9.7482;0.0284;0.0106;9.8066;0.05;-0.0106;-0.0685;0.03;0.02;0.04;54.5;-19.75;4.25;-27.75;78.56;-0.07;-0.15;5.0;31.428;;;;NaN;;;;0 / 0;4692;2022-11-17 13:45:02:868
0.0757;0.0112;9.7482;0.0284;0.0106;9.8066;0.05;-0.0106;-0.0685;0.06;0.08;0.07;54.5;-19.75;4.25;-27.75;78.56;-0.07;-0.15;5.0;31.428;;;;NaN;;;;0 / 0;4703;2022-11-17 13:45:02:879
0.0757;0.0112;9.7482;0.0284;0.0106;9.8066;0.05;-0.0106;-0.0685;0.06;0.08;0.07;54.5;-19.75;4.25;-27.75;78.56;-0.07;-0.15;5.0;31.428;;;;NaN;;;;0 / 0;4713;2022-11-17 13:45:02:889
0.0757;0.0112;9.7482;0.0284;0.0106;9.8066;0.05;-0.0106;-0.0685;0.06;0.08;0.07;54.5;-19.75;4.25;-27.75;78.56;-0.07;-0.15;5.0;31.428;;;;NaN;;;;0 / 0;4723;2022-11-17 13:45:02:899
0.0757;0.0112;9.7482;0.0284;0.0106;9.8066;0.05;-0.0106;-0.0685;0.06;0.08;0.07;54.8;-19.75;4.25;-27.75;78.56;-0.07;-0.15;5.0;31.428;;;;NaN;;;;0 / 0;4732;2022-11-17 13:45:02:908
0.0757;0.0112;9.7482;0.0284;0.0106;9.8066;0.05;-0.0106;-0.0685;0.06;0.08;0.07;54.8;-19.75;4.25;-27.75;78.56;-0.07;-0.15;5.0;31.428;;;;NaN;;;;0 / 0;4743;2022-11-17 13:45:02:919
0.0757;0.0112;9.7482;0.0284;0.0106;9.8066;0.05;-0.0106;-0.0685;0.06;0.08;0.07;54.8;-19.25;4.13;-27.75;77.97;-0.06;-0.17;5.0;31.428;;;;NaN;;;;0 / 0;4753;2022-11-17 13:45:02:929
0.0731;0.0128;9.7474;0.0284;0.0106;9.8066;0.05;-0.0106;-0.0685;0.06;0.08;0.07;54.8;-19.25;4.13;-27.75;77.97;-0.06;-0.17;5.0;31.428;;;;NaN;;;;0 / 0;4763;2022-11-17 13:45:02:939
0.0731;0.0128;9.7474;0.0302;0.0102;9.8065;0.0285;-0.0102;-0.0685;0.06;0.08;0.07;54.8;-19.25;4.13;-27.75;77.97;-0.06;-0.17;5.0;31.428;;;;NaN;;;;0 / 0;4773;2022-11-17 13:45:02:949
0.0731;0.0128;9.7474;0.0302;0.0102;9.8065;0.0285;-0.0102;-0.0685;0.06;0.08;0.07;54.8;-19.25;4.13;-27.75;77.97;-0.06;-0.17;5.0;31.428;;;;NaN;;;;0 / 0;4782;2022-11-17 13:45:02:958
0.0731;0.0128;9.7474;0.0302;0.0102;9.8065;0.0285;-0.0102;-0.0685;0.06;0.08;0.07;54.8;-19.25;4.13;-27.75;77.97;-0.06;-0.17;5.0;31.428;;;;NaN;;;;0 / 0;4792;2022-11-17 13:45:02:968
0.0731;0.0128;9.7474;0.0302;0.0102;9.8065;0.0285;-0.0102;-0.0685;0.06;0.08;0.07;54.8;-19.25;4.13;-27.75;77.97;-0.06;-0.17;5.0;31.428;;;;NaN;;;;0 / 0;4802;2022-11-17 13:45:02:978
0.0731;0.0128;9.7474;0.0302;0.0102;9.8065;0.0285;-0.0102;-0.0685;0.06;0.08;0.07;54.8;-19.25;4.13;-27.75;77.97;-0.06;-0.17;5.0;31.428;;;;NaN;;;;0 / 0;4812;2022-11-17 13:45:02:988
0.0731;0.0128;9.7474;0.0302;0.0102;9.8065;0.0285;-0.0102;-0.0685;0.06;0.08;0.07;54.8;-19.25;4.13;-27.75;77.97;-0.06;-0.17;5.0;31.428;;;;NaN;;;;0 / 0;4823;2022-11-17 13:45:02:999
0.0731;0.0128;9.7474;0.0302;0.0102;9.8065;0.0285;-0.0102;-0.0685;0.06;0.02;-0.05;54.8;-19.25;4.13;-27.75;77.97;-0.06;-0.17;5.0;31.428;;;;NaN;;;;0 / 0;4833;2022-11-17 13:45:03:009
0.0731;0.0128;9.7474;0.0302;0.0102;9.8065;0.0285;-0.0102;-0.0685;0.06;0.02;-0.05;54.8;-19.25;4.13;-27.75;77.97;-0.06;-0.17;5.0;31.428;;;;NaN;;;;0 / 0;4843;2022-11-17 13:45:03:019
0.0731;0.0128;9.7474;0.0302;0.0102;9.8065;0.0285;-0.0102;-0.0685;0.06;0.02;-0.05;54.8;-19.25;4.13;-27.75;77.97;-0.06;-0.17;5.0;31.428;;;;NaN;;;;0 / 0;4852;2022-11-17 13:45:03:028
0.0731;0.0128;9.7474;0.0302;0.0102;9.8065;0.0285;-0.0102;-0.0685;0.06;0.02;-0.05;54.8;-19.25;4.13;-27.75;77.97;-0.06;-0.17;5.0;31.428;;;;NaN;;;;0 / 0;4862;2022-11-17 13:45:03:038
0.0731;0.0128;9.7474;0.0323;0.0101;9.8065;0.0363;-3.0E-4;-0.0587;0.06;0.02;-0.05;54.8;-19.81;4.13;-27.69;78.56;-0.06;-0.18;5.0;31.668;;;;NaN;;;;0 / 0;4872;2022-11-17 13:45:03:048
0.0731;0.0128;9.7474;0.0323;0.0101;9.8065;0.0363;-3.0E-4;-0.0587;0.06;0.02;-0.05;54.8;-19.81;4.13;-27.69;78.56;-0.06;-0.18;5.0;31.668;;;;NaN;;;;0 / 0;4882;2022-11-17 13:45:03:058
0.0731;0.0128;9.7474;0.0323;0.0101;9.8065;0.0363;-3.0E-4;-0.0587;0.06;0.02;-0.05;54.8;-19.81;4.13;-27.69;78.56;-0.06;-0.18;5.0;31.668;;;;NaN;;;;0 / 0;4893;2022-11-17 13:45:03:069
0.0904;0.0192;9.7336;0.0323;0.0101;9.8065;0.0363;-3.0E-4;-0.0587;0.06;0.02;-0.05;54.8;-19.81;4.13;-27.69;78.56;-0.06;-0.18;5.0;31.668;;;;NaN;;;;0 / 0;4902;2022-11-17 13:45:03:078
0.0904;0.0192;9.7336;0.0323;0.0101;9.8065;0.0363;-3.0E-4;-0.0587;0.06;0.02;-0.05;54.8;-19.81;4.13;-27.69;78.56;-0.06;-0.18;5.0;31.668;;;;NaN;;;;0 / 0;4912;2022-11-17 13:45:03:088
0.0904;0.0192;9.7336;0.0323;0.0101;9.8065;0.0363;-3.0E-4;-0.0587;0.06;0.02;-0.05;54.8;-19.81;4.13;-27.69;78.56;-0.06;-0.18;5.0;31.668;;;;NaN;;;;0 / 0;4927;2022-11-17 13:45:03:103
0.0904;0.0192;9.7336;0.0323;0.0101;9.8065;0.0363;-3.0E-4;-0.0587;0.06;0.02;-0.05;54.8;-19.81;4.13;-27.69;78.56;-0.06;-0.18;5.0;31.668;;;;NaN;;;;0 / 0;4932;2022-11-17 13:45:03:108
0.0904;0.0192;9.7336;0.0323;0.0101;9.8065;0.0363;-3.0E-4;-0.0587;0.06;0.02;-0.05;54.8;-19.81;4.13;-27.69;78.56;-0.06;-0.18;5.0;31.668;;;;NaN;;;;0 / 0;4942;2022-11-17 13:45:03:118
0.0904;0.0192;9.7336;0.0323;0.0101;9.8065;0.0363;-3.0E-4;-0.0587;0.06;0.02;-0.05;54.8;-19.81;4.13;-27.69;78.56;-0.06;-0.18;5.0;31.668;;;;NaN;;;;0 / 0;4952;2022-11-17 13:45:03:128
0.0904;0.0192;9.7336;0.0323;0.0101;9.8065;0.0363;-3.0E-4;-0.0587;0.03;-0.01;0.01;54.8;-19.81;4.13;-27.69;78.56;-0.06;-0.18;5.0;31.668;;;;NaN;;;;0 / 0;4962;2022-11-17 13:45:03:138
0.0904;0.0192;9.7336;0.0345;0.0096;9.8065;0.0439;1.0E-4;-0.0783;0.03;-0.01;0.01;54.8;-19.81;4.13;-27.69;78.56;-0.06;-0.18;5.0;31.668;;;;NaN;;;;0 / 0;4973;2022-11-17 13:45:03:149
0.0904;0.0192;9.7336;0.0345;0.0096;9.8065;0.0439;1.0E-4;-0.0783;0.03;-0.01;0.01;54.8;-19.81;4.13;-27.69;78.56;-0.06;-0.18;5.0;31.668;;;;NaN;;;;0 / 0;4983;2022-11-17 13:45:03:159
0.0904;0.0192;9.7336;0.0345;0.0096;9.8065;0.0439;1.0E-4;-0.0783;0.03;-0.01;0.01;54.8;-19.44;4.13;-27.62;77.97;-0.06;-0.2;5.0;31.668;;;;NaN;;;;0 / 0;4992;2022-11-17 13:45:03:168
0.0904;0.0192;9.7336;0.0345;0.0096;9.8065;0.0439;1.0E-4;-0.0783;0.03;-0.01;0.01;54.8;-19.44;4.13;-27.62;77.97;-0.06;-0.2;5.0;31.668;;;;NaN;;;;0 / 0;5003;2022-11-17 13:45:03:179
0.0904;0.0192;9.7336;0.0345;0.0096;9.8065;0.0439;1.0E-4;-0.0783;0.03;-0.01;0.01;54.8;-19.44;4.13;-27.62;77.97;-0.06;-0.2;5.0;31.668;;;;NaN;;;;0 / 0;5012;2022-11-17 13:45:03:188
0.0904;0.0192;9.7336;0.0345;0.0096;9.8065;0.0439;1.0E-4;-0.0783;0.03;-0.01;0.01;54.8;-19.44;4.13;-27.62;77.97;-0.06;-0.2;5.0;31.668;;;;NaN;;;;0 / 0;5023;2022-11-17 13:45:03:199
0.072;0.0171;9.7418;0.0345;0.0096;9.8065;0.0439;1.0E-4;-0.0783;0.03;-0.01;0.01;54.8;-19.44;4.13;-27.62;77.97;-0.06;-0.2;5.0;31.668;;;;NaN;;;;0 / 0;5033;2022-11-17 13:45:03:209
0.072;0.0171;9.7418;0.0345;0.0096;9.8065;0.0439;1.0E-4;-0.0783;0.03;-0.01;0.01;54.8;-19.44;4.13;-27.62;77.97;-0.06;-0.2;5.0;31.668;;;;NaN;;;;0 / 0;5042;2022-11-17 13:45:03:218
0.072;0.0171;9.7418;0.0345;0.0096;9.8065;0.0439;1.0E-4;-0.0783;0.03;-0.01;0.01;54.8;-19.44;4.13;-27.62;77.97;-0.06;-0.2;5.0;31.668;;;;NaN;;;;0 / 0;5052;2022-11-17 13:45:03:228
0.072;0.0171;9.7418;0.0345;0.0096;9.8065;0.0439;1.0E-4;-0.0783;0.03;-0.01;0.01;54.8;-19.44;4.13;-27.62;77.97;-0.06;-0.2;5.0;31.668;;;;NaN;;;;0 / 0;5062;2022-11-17 13:45:03:238
0.072;0.0171;9.7418;0.0367;0.0096;9.8065;0.022;1.0E-4;-0.0685;0.03;-0.01;0.01;54.8;-19.44;4.13;-27.62;77.97;-0.06;-0.2;5.0;31.668;;;;NaN;;;;0 / 0;5073;2022-11-17 13:45:03:249
0.072;0.0171;9.7418;0.0367;0.0096;9.8065;0.022;1.0E-4;-0.0685;0.03;-0.01;0.01;54.5;-19.44;4.13;-27.62;77.97;-0.06;-0.2;5.0;31.668;;;;NaN;;;;0 / 0;5082;2022-11-17 13:45:03:258
0.072;0.0171;9.7418;0.0367;0.0096;9.8065;0.022;1.0E-4;-0.0685;0.0;-0.01;0.01;54.5;-19.44;4.13;-27.62;77.97;-0.06;-0.2;5.0;31.668;;;;NaN;;;;0 / 0;5092;2022-11-17 13:45:03:268
0.072;0.0171;9.7418;0.0367;0.0096;9.8065;0.022;1.0E-4;-0.0685;0.0;-0.01;0.01;54.5;-19.44;4.13;-27.62;77.97;-0.06;-0.2;5.0;31.668;;;;NaN;;;;0 / 0;5102;2022-11-17 13:45:03:278
0.072;0.0171;9.7418;0.0367;0.0096;9.8065;0.022;1.0E-4;-0.0685;0.0;-0.01;0.01;54.5;-19.87;4.0;-27.56;78.56;-0.06;-0.21;5.0;31.668;;;;NaN;;;;0 / 0;5112;2022-11-17 13:45:03:288
0.072;0.0171;9.7418;0.0367;0.0096;9.8065;0.022;1.0E-4;-0.0685;0.0;-0.01;0.01;54.5;-19.87;4.0;-27.56;78.56;-0.06;-0.21;5.0;31.668;;;;NaN;;;;0 / 0;5123;2022-11-17 13:45:03:299
0.072;0.0171;9.7418;0.0367;0.0096;9.8065;0.022;1.0E-4;-0.0685;0.0;-0.01;0.01;54.5;-19.87;4.0;-27.56;78.56;-0.06;-0.21;5.0;31.668;;;;NaN;;;;0 / 0;5132;2022-11-17 13:45:03:308
0.072;0.0171;9.7418;0.0367;0.0096;9.8065;0.022;1.0E-4;-0.0685;0.0;-0.01;0.01;54.5;-19.87;4.0;-27.56;78.56;-0.06;-0.21;5.0;31.668;;;;NaN;;;;0 / 0;5142;2022-11-17 13:45:03:318
0.072;0.0171;9.7418;0.0367;0.0096;9.8065;0.022;1.0E-4;-0.0685;0.0;-0.01;0.01;54.5;-19.87;4.0;-27.56;78.56;-0.06;-0.21;5.0;31.668;;;;NaN;;;;0 / 0;5152;2022-11-17 13:45:03:328
0.0744;0.0052;9.7413;0.0367;0.0096;9.8065;0.022;1.0E-4;-0.0685;0.0;-0.01;0.01;54.5;-19.87;4.0;-27.56;78.56;-0.06;-0.21;5.0;31.668;;;;NaN;;;;0 / 0;5162;2022-11-17 13:45:03:338
0.0744;0.0052;9.7413;0.0386;0.0092;9.8065;0.03;-0.0092;-0.0685;0.0;-0.01;0.01;54.5;-19.87;4.0;-27.56;78.56;-0.06;-0.21;5.0;31.668;;;;NaN;;;;0 / 0;5173;2022-11-17 13:45:03:349
0.0744;0.0052;9.7413;0.0386;0.0092;9.8065;0.03;-0.0092;-0.0685;0.0;-0.01;0.01;54.5;-19.87;4.0;-27.56;78.56;-0.06;-0.21;5.0;31.668;;;;NaN;;;;0 / 0;5183;2022-11-17 13:45:03:359
0.0744;0.0052;9.7413;0.0386;0.0092;9.8065;0.03;-0.0092;-0.0685;0.0;-0.01;0.01;54.5;-19.87;4.0;-27.56;78.56;-0.06;-0.21;5.0;31.668;;;;NaN;;;;0 / 0;5192;2022-11-17 13:45:03:368
0.0744;0.0052;9.7413;0.0386;0.0092;9.8065;0.03;-0.0092;-0.0685;0.0;-0.01;0.01;54.5;-19.87;4.0;-27.56;78.56;-0.06;-0.21;5.0;31.668;;;;NaN;;;;0 / 0;5202;2022-11-17 13:45:03:378
0.0744;0.0052;9.7413;0.0386;0.0092;9.8065;0.03;-0.0092;-0.0685;0.0;-0.01;0.01;54.5;-19.87;4.0;-27.56;78.56;-0.06;-0.21;5.0;32.357;;;;NaN;;;;0 / 0;5212;2022-11-17 13:45:03:388
0.0744;0.0052;9.7413;0.0386;0.0092;9.8065;0.03;-0.0092;-0.0685;0.0;-0.01;0.01;54.5;-19.87;4.0;-27.56;78.56;-0.06;-0.21;5.0;32.357;;;;NaN;;;;0 / 0;5223;2022-11-17 13:45:03:399
0.0744;0.0052;9.7413;0.0386;0.0092;9.8065;0.03;-0.0092;-0.0685;0.03;0.08;-0.08;54.5;-18.87;4.06;-27.69;77.97;-0.05;-0.23;5.0;32.357;;;;NaN;;;;0 / 0;5232;2022-11-17 13:45:03:408
0.0744;0.0052;9.7413;0.0386;0.0092;9.8065;0.03;-0.0092;-0.0685;0.03;0.08;-0.08;54.5;-18.87;4.06;-27.69;77.97;-0.05;-0.23;5.0;32.357;;;;NaN;;;;0 / 0;5243;2022-11-17 13:45:03:419
0.0744;0.0052;9.7413;0.0386;0.0092;9.8065;0.03;-0.0092;-0.0685;0.03;0.08;-0.08;54.5;-18.87;4.06;-27.69;77.97;-0.05;-0.23;5.0;32.357;;;;NaN;;;;0 / 0;5253;2022-11-17 13:45:03:429
0.0744;0.0052;9.7413;0.0386;0.0092;9.8065;0.03;-0.0092;-0.0685;0.03;0.08;-0.08;54.5;-18.87;4.06;-27.69;77.97;-0.05;-0.23;5.0;32.357;;;;NaN;;;;0 / 0;5262;2022-11-17 13:45:03:438
0.0744;0.0052;9.7413;0.04;0.009;9.8065;0.0286;-0.009;-0.0783;0.03;0.08;-0.08;54.5;-18.87;4.06;-27.69;77.97;-0.05;-0.23;5.0;32.357;;;;NaN;;;;0 / 0;5272;2022-11-17 13:45:03:448
0.0744;0.0052;9.7413;0.04;0.009;9.8065;0.0286;-0.009;-0.0783;0.03;0.08;-0.08;54.5;-18.87;4.06;-27.69;77.97;-0.05;-0.23;5.0;32.357;;;;NaN;;;;0 / 0;5282;2022-11-17 13:45:03:458
0.0748;0.0289;9.7558;0.04;0.009;9.8065;0.0286;-0.009;-0.0783;0.03;0.08;-0.08;54.5;-18.87;4.06;-27.69;77.97;-0.05;-0.23;5.0;32.357;;;;NaN;;;;0 / 0;5292;2022-11-17 13:45:03:468
0.0748;0.0289;9.7558;0.04;0.009;9.8065;0.0286;-0.009;-0.0783;0.03;0.08;-0.08;54.5;-18.87;4.06;-27.69;77.97;-0.05;-0.23;5.0;32.357;;;;NaN;;;;0 / 0;5302;2022-11-17 13:45:03:478
0.0748;0.0289;9.7558;0.04;0.009;9.8065;0.0286;-0.009;-0.0783;0.03;0.08;-0.08;54.5;-18.87;4.06;-27.69;77.97;-0.05;-0.23;5.0;32.357;;;;NaN;;;;0 / 0;5312;2022-11-17 13:45:03:488
0.0748;0.0289;9.7558;0.04;0.009;9.8065;0.0286;-0.009;-0.0783;0.03;0.08;-0.08;54.5;-18.87;4.06;-27.69;77.97;-0.05;-0.23;5.0;32.357;;;;NaN;;;;0 / 0;5322;2022-11-17 13:45:03:498
0.0748;0.0289;9.7558;0.04;0.009;9.8065;0.0286;-0.009;-0.0783;0.03;0.08;-0.08;54.5;-18.87;4.06;-27.69;77.97;-0.05;-0.23;5.0;32.357;;;;NaN;;;;0 / 0;5332;2022-11-17 13:45:03:508
0.0748;0.0289;9.7558;0.04;0.009;9.8065;0.0286;-0.009;-0.0783;0.03;0.08;-0.08;54.5;-18.87;4.06;-27.69;77.97;-0.05;-0.23;5.0;32.357;;;;NaN;;;;0 / 0;5342;2022-11-17 13:45:03:518
0.0748;0.0289;9.7558;0.04;0.009;9.8065;0.0286;-0.009;-0.0783;0.03;0.08;-0.08;54.5;-19.25;4.13;-27.0;77.97;-0.05;-0.23;5.0;32.357;;;;NaN;;;;0 / 0;5352;2022-11-17 13:45:03:528
0.0748;0.0289;9.7558;0.04;0.009;9.8065;0.0286;-0.009;-0.0783;0.03;-0.01;0.01;54.5;-19.25;4.13;-27.0;77.97;-0.05;-0.23;5.0;32.357;;;;NaN;;;;0 / 0;5362;2022-11-17 13:45:03:538
0.0748;0.0289;9.7558;0.0417;0.0086;9.8065;0.0269;-0.0086;-0.0783;0.03;-0.01;0.01;54.5;-19.25;4.13;-27.0;77.97;-0.05;-0.23;5.0;32.357;;;;NaN;;;;0 / 0;5373;2022-11-17 13:45:03:549
0.0748;0.0289;9.7558;0.0417;0.0086;9.8065;0.0269;-0.0086;-0.0783;0.03;-0.01;0.01;54.5;-19.25;4.13;-27.0;77.97;-0.05;-0.23;5.0;32.357;;;;NaN;;;;0 / 0;5382;2022-11-17 13:45:03:558
0.0748;0.0289;9.7558;0.0417;0.0086;9.8065;0.0269;-0.0086;-0.0783;0.03;-0.01;0.01;54.5;-19.25;4.13;-27.0;77.97;-0.05;-0.23;5.0;32.357;;;;NaN;;;;0 / 0;5392;2022-11-17 13:45:03:568
0.0748;0.0289;9.7558;0.0417;0.0086;9.8065;0.0269;-0.0086;-0.0783;0.03;-0.01;0.01;54.5;-19.25;4.13;-27.0;77.97;-0.05;-0.23;5.0;32.357;;;;NaN;;;;0 / 0;5402;2022-11-17 13:45:03:578
0.0748;0.0289;9.7558;0.0417;0.0086;9.8065;0.0269;-0.0086;-0.0783;0.03;-0.01;0.01;54.5;-19.25;4.13;-27.0;77.97;-0.05;-0.23;5.0;32.357;;;;NaN;;;;0 / 0;5413;2022-11-17 13:45:03:589
0.082;0.0123;9.7462;0.0417;0.0086;9.8065;0.0269;-0.0086;-0.0783;0.03;-0.01;0.01;54.5;-19.25;4.13;-27.0;77.97;-0.05;-0.23;5.0;32.357;;;;NaN;;;;0 / 0;5422;2022-11-17 13:45:03:598
0.082;0.0123;9.7462;0.0417;0.0086;9.8065;0.0269;-0.0086;-0.0783;0.03;-0.01;0.01;54.8;-19.25;4.13;-27.0;77.97;-0.05;-0.23;5.0;32.357;;;;NaN;;;;0 / 0;5433;2022-11-17 13:45:03:609
0.082;0.0123;9.7462;0.0417;0.0086;9.8065;0.0269;-0.0086;-0.0783;0.03;-0.01;0.01;54.8;-19.25;4.13;-27.0;77.97;-0.05;-0.23;5.0;32.357;;;;NaN;;;;0 / 0;5443;2022-11-17 13:45:03:619
0.082;0.0123;9.7462;0.0417;0.0086;9.8065;0.0269;-0.0086;-0.0783;0.03;-0.01;0.01;54.8;-19.25;4.13;-27.0;77.97;-0.05;-0.23;5.0;32.357;;;;NaN;;;;0 / 0;5452;2022-11-17 13:45:03:628
0.082;0.0123;9.7462;0.0417;0.0086;9.8065;0.0269;-0.0086;-0.0783;0.03;-0.01;0.01;54.8;-19.25;4.13;-27.0;77.97;-0.05;-0.23;5.0;32.357;;;;NaN;;;;0 / 0;5462;2022-11-17 13:45:03:638
0.082;0.0123;9.7462;0.0435;0.0088;9.8065;0.0251;0.001;-0.0783;0.03;-0.01;0.01;54.8;-19.75;4.38;-27.69;78.56;-0.05;-0.24;5.0;32.357;;;;NaN;;;;0 / 0;5472;2022-11-17 13:45:03:648
0.082;0.0123;9.7462;0.0435;0.0088;9.8065;0.0251;0.001;-0.0783;0.03;-0.01;0.01;54.8;-19.75;4.38;-27.69;78.56;-0.05;-0.24;5.0;32.357;;;;NaN;;;;0 / 0;5482;2022-11-17 13:45:03:658
0.082;0.0123;9.7462;0.0435;0.0088;9.8065;0.0251;0.001;-0.0783;0.0;-0.01;-0.05;54.8;-19.75;4.38;-27.69;78.56;-0.05;-0.24;5.0;32.357;;;;NaN;;;;0 / 0;5492;2022-11-17 13:45:03:668
0.082;0.0123;9.7462;0.0435;0.0088;9.8065;0.0251;0.001;-0.0783;0.0;-0.01;-0.05;54.8;-19.75;4.38;-27.69;78.56;-0.05;-0.24;5.0;32.357;;;;NaN;;;;0 / 0;5503;2022-11-17 13:45:03:679
0.082;0.0123;9.7462;0.0435;0.0088;9.8065;0.0251;0.001;-0.0783;0.0;-0.01;-0.05;54.8;-19.75;4.38;-27.69;78.56;-0.05;-0.24;5.0;32.357;;;;NaN;;;;0 / 0;5513;2022-11-17 13:45:03:689
0.082;0.0123;9.7462;0.0435;0.0088;9.8065;0.0251;0.001;-0.0783;0.0;-0.01;-0.05;54.8;-19.75;4.38;-27.69;78.56;-0.05;-0.24;5.0;32.357;;;;NaN;;;;0 / 0;5522;2022-11-17 13:45:03:698
0.082;0.0123;9.7462;0.0435;0.0088;9.8065;0.0251;0.001;-0.0783;0.0;-0.01;-0.05;54.8;-19.75;4.38;-27.69;78.56;-0.05;-0.24;5.0;32.6;;;;NaN;;;;0 / 0;5532;2022-11-17 13:45:03:708
0.082;0.0123;9.7462;0.0435;0.0088;9.8065;0.0251;0.001;-0.0783;0.0;-0.01;-0.05;54.8;-19.75;4.38;-27.69;78.56;-0.05;-0.24;5.0;32.6;;;;NaN;;;;0 / 0;5542;2022-11-17 13:45:03:718
0.082;0.0123;9.7462;0.0435;0.0088;9.8065;0.0251;0.001;-0.0783;0.0;-0.01;-0.05;54.8;-19.75;4.38;-27.69;78.56;-0.05;-0.24;5.0;32.6;;;;NaN;;;;0 / 0;5552;2022-11-17 13:45:03:728
0.0791;0.0161;9.7339;0.0435;0.0088;9.8065;0.0251;0.001;-0.0783;0.0;-0.01;-0.05;54.8;-19.75;4.38;-27.69;78.56;-0.05;-0.24;5.0;32.6;;;;NaN;;;;0 / 0;5562;2022-11-17 13:45:03:738
0.0791;0.0161;9.7339;0.0451;0.0085;9.8065;0.0235;0.0012;-0.0587;0.0;-0.01;-0.05;54.8;-19.75;4.38;-27.69;78.56;-0.05;-0.24;5.0;32.6;;;;NaN;;;;0 / 0;5572;2022-11-17 13:45:03:748
0.0791;0.0161;9.7339;0.0451;0.0085;9.8065;0.0235;0.0012;-0.0587;0.0;-0.01;-0.05;54.8;-19.75;4.38;-27.69;78.56;-0.05;-0.24;5.0;32.6;;;;NaN;;;;0 / 0;5582;2022-11-17 13:45:03:758
0.0791;0.0161;9.7339;0.0451;0.0085;9.8065;0.0235;0.0012;-0.0587;0.0;-0.01;-0.05;54.8;-19.25;4.0;-27.56;77.96;-0.05;-0.26;5.0;32.6;;;;NaN;;;;0 / 0;5592;2022-11-17 13:45:03:768
0.0791;0.0161;9.7339;0.0451;0.0085;9.8065;0.0235;0.0012;-0.0587;0.0;-0.01;-0.05;54.8;-19.25;4.0;-27.56;77.96;-0.05;-0.26;5.0;32.6;;;;NaN;;;;0 / 0;5603;2022-11-17 13:45:03:779
0.0791;0.0161;9.7339;0.0451;0.0085;9.8065;0.0235;0.0012;-0.0587;0.0;-0.01;-0.05;54.8;-19.25;4.0;-27.56;77.96;-0.05;-0.26;5.0;32.6;;;;NaN;;;;0 / 0;5613;2022-11-17 13:45:03:789
0.0791;0.0161;9.7339;0.0451;0.0085;9.8065;0.0235;0.0012;-0.0587;0.03;-0.04;-0.02;54.8;-19.25;4.0;-27.56;77.96;-0.05;-0.26;5.0;32.6;;;;NaN;;;;0 / 0;5623;2022-11-17 13:45:03:799
0.0791;0.0161;9.7339;0.0451;0.0085;9.8065;0.0235;0.0012;-0.0587;0.03;-0.04;-0.02;54.8;-19.25;4.0;-27.56;77.96;-0.05;-0.26;5.0;32.6;;;;NaN;;;;0 / 0;5633;2022-11-17 13:45:03:809
0.0791;0.0161;9.7339;0.0451;0.0085;9.8065;0.0235;0.0012;-0.0587;0.03;-0.04;-0.02;54.8;-19.25;4.0;-27.56;77.96;-0.05;-0.26;5.0;32.6;;;;NaN;;;;0 / 0;5642;2022-11-17 13:45:03:818
0.0791;0.0161;9.7339;0.0451;0.0085;9.8065;0.0235;0.0012;-0.0587;0.03;-0.04;-0.02;54.8;-19.25;4.0;-27.56;77.96;-0.05;-0.26;5.0;32.6;;;;NaN;;;;0 / 0;5652;2022-11-17 13:45:03:828
0.0791;0.0161;9.7339;0.0451;0.0085;9.8065;0.0235;0.0012;-0.0587;0.03;-0.04;-0.02;54.8;-19.25;4.0;-27.56;77.96;-0.05;-0.26;5.0;32.6;;;;NaN;;;;0 / 0;5662;2022-11-17 13:45:03:838
0.0791;0.0161;9.7339;0.0464;0.0083;9.8065;0.0222;0.0015;-0.0489;0.03;-0.04;-0.02;54.8;-19.25;4.0;-27.56;77.96;-0.05;-0.26;5.0;32.6;;;;NaN;;;;0 / 0;5672;2022-11-17 13:45:03:848
0.0791;0.0161;9.7339;0.0464;0.0083;9.8065;0.0222;0.0015;-0.0489;0.03;-0.04;-0.02;54.8;-19.25;4.0;-27.56;77.96;-0.05;-0.26;5.0;32.6;;;;NaN;;;;0 / 0;5682;2022-11-17 13:45:03:858
0.0763;0.0346;9.7382;0.0464;0.0083;9.8065;0.0222;0.0015;-0.0489;0.03;-0.04;-0.02;54.8;-19.25;4.0;-27.56;77.96;-0.05;-0.26;5.0;32.6;;;;NaN;;;;0 / 0;5693;2022-11-17 13:45:03:869
0.0763;0.0346;9.7382;0.0464;0.0083;9.8065;0.0222;0.0015;-0.0489;0.03;-0.04;-0.02;54.8;-19.25;4.0;-27.56;77.96;-0.05;-0.26;5.0;32.6;;;;NaN;;;;0 / 0;5703;2022-11-17 13:45:03:879
0.0763;0.0346;9.7382;0.0464;0.0083;9.8065;0.0222;0.0015;-0.0489;0.03;-0.04;-0.02;54.8;-19.56;3.75;-27.0;78.56;-0.05;-0.27;5.0;32.6;;;;NaN;;;;0 / 0;5713;2022-11-17 13:45:03:889
0.0763;0.0346;9.7382;0.0464;0.0083;9.8065;0.0222;0.0015;-0.0489;0.03;-0.04;-0.02;54.8;-19.56;3.75;-27.0;78.56;-0.05;-0.27;5.0;32.6;;;;NaN;;;;0 / 0;5722;2022-11-17 13:45:03:898
0.0763;0.0346;9.7382;0.0464;0.0083;9.8065;0.0222;0.0015;-0.0489;0.03;-0.04;-0.02;54.8;-19.56;3.75;-27.0;78.56;-0.05;-0.27;5.0;32.6;;;;NaN;;;;0 / 0;5732;2022-11-17 13:45:03:908
0.0763;0.0346;9.7382;0.0464;0.0083;9.8065;0.0222;0.0015;-0.0489;0.03;-0.04;-0.02;54.8;-19.56;3.75;-27.0;78.56;-0.05;-0.27;5.0;32.6;;;;NaN;;;;0 / 0;5742;2022-11-17 13:45:03:918
0.0763;0.0346;9.7382;0.0464;0.0083;9.8065;0.0222;0.0015;-0.0489;-0.03;-0.01;-0.02;54.8;-19.56;3.75;-27.0;78.56;-0.05;-0.27;5.0;32.6;;;;NaN;;;;0 / 0;5752;2022-11-17 13:45:03:928
0.0763;0.0346;9.7382;0.0464;0.0083;9.8065;0.0222;0.0015;-0.0489;-0.03;-0.01;-0.02;54.8;-19.56;3.75;-27.0;78.56;-0.05;-0.27;5.0;32.6;;;;NaN;;;;0 / 0;5762;2022-11-17 13:45:03:938
0.0763;0.0346;9.7382;0.0476;0.0078;9.8065;0.0112;-0.0078;-0.0587;-0.03;-0.01;-0.02;54.8;-19.56;3.75;-27.0;78.56;-0.05;-0.27;5.0;32.6;;;;NaN;;;;0 / 0;5772;2022-11-17 13:45:03:948
0.0763;0.0346;9.7382;0.0476;0.0078;9.8065;0.0112;-0.0078;-0.0587;-0.03;-0.01;-0.02;54.5;-19.56;3.75;-27.0;78.56;-0.05;-0.27;5.0;32.6;;;;NaN;;;;0 / 0;5782;2022-11-17 13:45:03:958
0.0763;0.0346;9.7382;0.0476;0.0078;9.8065;0.0112;-0.0078;-0.0587;-0.03;-0.01;-0.02;54.5;-19.56;3.75;-27.0;78.56;-0.05;-0.27;5.0;32.6;;;;NaN;;;;0 / 0;5792;2022-11-17 13:45:03:968
0.0763;0.0346;9.7382;0.0476;0.0078;9.8065;0.0112;-0.0078;-0.0587;-0.03;-0.01;-0.02;54.5;-19.56;3.75;-27.0;78.56;-0.05;-0.27;5.0;32.6;;;;NaN;;;;0 / 0;5802;2022-11-17 13:45:03:978
0.0763;0.0346;9.7382;0.0476;0.0078;9.8065;0.0112;-0.0078;-0.0587;-0.03;-0.01;-0.02;54.5;-19.56;3.75;-27.0;78.56;-0.05;-0.27;5.0;32.6;;;;NaN;;;;0 / 0;5812;2022-11-17 13:45:03:988
0.0883;0.0215;9.7706;0.0476;0.0078;9.8065;0.0112;-0.0078;-0.0587;-0.03;-0.01;-0.02;54.5;-19.56;3.75;-27.0;78.56;-0.05;-0.27;5.0;32.6;;;;NaN;;;;0 / 0;5823;2022-11-17 13:45:03:999
0.0883;0.0215;9.7706;0.0476;0.0078;9.8065;0.0112;-0.0078;-0.0587;-0.03;-0.01;-0.02;54.5;-19.19;4.13;-27.5;77.97;-0.05;-0.28;5.0;32.6;;;;NaN;;;;0 / 0;5833;2022-11-17 13:45:04:009
0.0883;0.0215;9.7706;0.0476;0.0078;9.8065;0.0112;-0.0078;-0.0587;-0.03;-0.01;-0.02;54.5;-19.19;4.13;-27.5;77.97;-0.05;-0.28;5.0;32.6;;;;NaN;;;;0 / 0;5842;2022-11-17 13:45:04:018
0.0883;0.0215;9.7706;0.0476;0.0078;9.8065;0.0112;-0.0078;-0.0587;-0.03;-0.01;-0.02;54.5;-19.19;4.13;-27.5;77.97;-0.05;-0.28;5.0;32.6;;;;NaN;;;;0 / 0;5852;2022-11-17 13:45:04:028
0.0883;0.0215;9.7706;0.0476;0.0078;9.8065;0.0112;-0.0078;-0.0587;-0.03;-0.01;-0.02;54.5;-19.19;4.13;-27.5;77.97;-0.05;-0.28;5.0;33.755;;;;NaN;;;;0 / 0;5862;2022-11-17 13:45:04:038
0.0883;0.0215;9.7706;0.0484;0.008;9.8065;0.0201;0.0115;-0.0587;-0.03;-0.01;-0.02;54.5;-19.19;4.13;-27.5;77.97;-0.05;-0.28;5.0;33.755;;;;NaN;;;;0 / 0;5873;2022-11-17 13:45:04:049
0.0883;0.0215;9.7706;0.0484;0.008;9.8065;0.0201;0.0115;-0.0587;0.03;0.05;0.01;54.5;-19.19;4.13;-27.5;77.97;-0.05;-0.28;5.0;33.755;;;;NaN;;;;0 / 0;5883;2022-11-17 13:45:04:059
0.0883;0.0215;9.7706;0.0484;0.008;9.8065;0.0201;0.0115;-0.0587;0.03;0.05;0.01;54.5;-19.19;4.13;-27.5;77.97;-0.05;-0.28;5.0;33.755;;;;NaN;;;;0 / 0;5893;2022-11-17 13:45:04:069
0.0883;0.0215;9.7706;0.0484;0.008;9.8065;0.0201;0.0115;-0.0587;0.03;0.05;0.01;54.5;-19.19;4.13;-27.5;77.97;-0.05;-0.28;5.0;33.755;;;;NaN;;;;0 / 0;5903;2022-11-17 13:45:04:079
0.0883;0.0215;9.7706;0.0484;0.008;9.8065;0.0201;0.0115;-0.0587;0.03;0.05;0.01;54.5;-19.19;4.13;-27.5;77.97;-0.05;-0.28;5.0;33.755;;;;NaN;;;;0 / 0;5912;2022-11-17 13:45:04:088
0.0883;0.0215;9.7706;0.0484;0.008;9.8065;0.0201;0.0115;-0.0587;0.03;0.05;0.01;54.5;-19.19;4.13;-27.5;77.97;-0.05;-0.28;5.0;33.755;;;;NaN;;;;0 / 0;5922;2022-11-17 13:45:04:098
0.0883;0.0215;9.7706;0.0484;0.008;9.8065;0.0201;0.0115;-0.0587;0.03;0.05;0.01;54.5;-19.19;4.13;-27.5;77.97;-0.05;-0.28;5.0;33.755;;;;NaN;;;;0 / 0;5932;2022-11-17 13:45:04:108
0.0883;0.0215;9.7706;0.0484;0.008;9.8065;0.0201;0.0115;-0.0587;0.03;0.05;0.01;54.5;-19.19;4.13;-27.5;77.97;-0.05;-0.28;5.0;33.755;;;;NaN;;;;0 / 0;5942;2022-11-17 13:45:04:118
0.07;0.0043;9.7484;0.0484;0.008;9.8065;0.0201;0.0115;-0.0587;0.03;0.05;0.01;54.5;-19.5;3.81;-27.56;77.96;-0.05;-0.28;5.0;33.755;;;;NaN;;;;0 / 0;5952;2022-11-17 13:45:04:128
0.07;0.0043;9.7484;0.0484;0.008;9.8065;0.0201;0.0115;-0.0587;0.03;0.05;0.01;54.5;-19.5;3.81;-27.56;77.96;-0.05;-0.28;5.0;33.755;;;;NaN;;;;0 / 0;5962;2022-11-17 13:45:04:138
0.07;0.0043;9.7484;0.0491;0.0082;9.8065;0.0096;-0.0082;-0.0489;0.03;0.05;0.01;54.5;-19.5;3.81;-27.56;77.96;-0.05;-0.28;5.0;33.755;;;;NaN;;;;0 / 0;5972;2022-11-17 13:45:04:148
0.07;0.0043;9.7484;0.0491;0.0082;9.8065;0.0096;-0.0082;-0.0489;0.03;0.05;0.01;54.5;-19.5;3.81;-27.56;77.96;-0.05;-0.28;5.0;33.755;;;;NaN;;;;0 / 0;5982;2022-11-17 13:45:04:158
0.07;0.0043;9.7484;0.0491;0.0082;9.8065;0.0096;-0.0082;-0.0489;0.03;0.05;0.01;54.5;-19.5;3.81;-27.56;77.96;-0.05;-0.28;5.0;33.755;;;;NaN;;;;0 / 0;5992;2022-11-17 13:45:04:168
0.07;0.0043;9.7484;0.0491;0.0082;9.8065;0.0096;-0.0082;-0.0489;0.03;0.05;0.01;54.5;-19.5;3.81;-27.56;77.96;-0.05;-0.28;5.0;33.755;;;;NaN;;;;0 / 0;6002;2022-11-17 13:45:04:178
0.07;0.0043;9.7484;0.0491;0.0082;9.8065;0.0096;-0.0082;-0.0489;0.03;0.05;0.01;54.5;-19.5;3.81;-27.56;77.96;-0.05;-0.28;5.0;33.755;;;;NaN;;;;0 / 0;6012;2022-11-17 13:45:04:188
0.07;0.0043;9.7484;0.0491;0.0082;9.8065;0.0096;-0.0082;-0.0489;0.03;0.08;0.04;54.5;-19.5;3.81;-27.56;77.96;-0.05;-0.28;5.0;33.755;;;;NaN;;;;0 / 0;6022;2022-11-17 13:45:04:198
0.07;0.0043;9.7484;0.0491;0.0082;9.8065;0.0096;-0.0082;-0.0489;0.03;0.08;0.04;54.5;-19.5;3.81;-27.56;77.96;-0.05;-0.28;5.0;33.755;;;;NaN;;;;0 / 0;6033;2022-11-17 13:45:04:209
0.07;0.0043;9.7484;0.0491;0.0082;9.8065;0.0096;-0.0082;-0.0489;0.03;0.08;0.04;54.5;-19.5;3.81;-27.56;77.96;-0.05;-0.28;5.0;33.755;;;;NaN;;;;0 / 0;6043;2022-11-17 13:45:04:219
0.07;0.0043;9.7484;0.0491;0.0082;9.8065;0.0096;-0.0082;-0.0489;0.03;0.08;0.04;54.5;-19.5;3.81;-27.56;77.96;-0.05;-0.28;5.0;33.755;;;;NaN;;;;0 / 0;6053;2022-11-17 13:45:04:229
0.07;0.0043;9.7484;0.0491;0.0082;9.8065;0.0096;-0.0082;-0.0489;0.03;0.08;0.04;54.5;-19.5;3.81;-27.56;77.96;-0.05;-0.28;5.0;33.755;;;;NaN;;;;0 / 0;6063;2022-11-17 13:45:04:239
0.07;0.0043;9.7484;0.0495;0.0078;9.8065;0.0093;-0.0078;-0.0587;0.03;0.08;0.04;54.5;-19.37;4.31;-27.62;77.96;-0.05;-0.29;5.0;33.755;;;;NaN;;;;0 / 0;6072;2022-11-17 13:45:04:248
0.0802;0.0156;9.7462;0.0495;0.0078;9.8065;0.0093;-0.0078;-0.0587;0.03;0.08;0.04;54.5;-19.37;4.31;-27.62;77.96;-0.05;-0.29;5.0;33.755;;;;NaN;;;;0 / 0;6083;2022-11-17 13:45:04:259
0.0802;0.0156;9.7462;0.0495;0.0078;9.8065;0.0093;-0.0078;-0.0587;0.03;0.08;0.04;54.5;-19.37;4.31;-27.62;77.96;-0.05;-0.29;5.0;33.755;;;;NaN;;;;0 / 0;6093;2022-11-17 13:45:04:269
0.0802;0.0156;9.7462;0.0495;0.0078;9.8065;0.0093;-0.0078;-0.0587;0.03;0.08;0.04;54.5;-19.37;4.31;-27.62;77.96;-0.05;-0.29;5.0;33.755;;;;NaN;;;;0 / 0;6103;2022-11-17 13:45:04:279
0.0802;0.0156;9.7462;0.0495;0.0078;9.8065;0.0093;-0.0078;-0.0587;0.03;0.08;0.04;54.5;-19.37;4.31;-27.62;77.96;-0.05;-0.29;5.0;33.755;;;;NaN;;;;0 / 0;6112;2022-11-17 13:45:04:288
0.0802;0.0156;9.7462;0.0495;0.0078;9.8065;0.0093;-0.0078;-0.0587;0.03;0.08;0.04;54.5;-19.37;4.31;-27.62;77.96;-0.05;-0.29;5.0;33.755;;;;NaN;;;;0 / 0;6122;2022-11-17 13:45:04:298
0.0802;0.0156;9.7462;0.0495;0.0078;9.8065;0.0093;-0.0078;-0.0587;0.03;0.08;0.04;54.5;-19.37;4.31;-27.62;77.96;-0.05;-0.29;5.0;33.755;;;;NaN;;;;0 / 0;6132;2022-11-17 13:45:04:308
0.0802;0.0156;9.7462;0.0495;0.0078;9.8065;0.0093;-0.0078;-0.0587;0.03;0.08;0.04;54.5;-19.37;4.31;-27.62;77.96;-0.05;-0.29;5.0;33.755;;;;NaN;;;;0 / 0;6143;2022-11-17 13:45:04:319
0.0802;0.0156;9.7462;0.0495;0.0078;9.8065;0.0093;-0.0078;-0.0587;0.03;0.11;0.01;54.5;-19.37;4.31;-27.62;77.96;-0.05;-0.29;5.0;33.755;;;;NaN;;;;0 / 0;6152;2022-11-17 13:45:04:328
0.0802;0.0156;9.7462;0.0495;0.0078;9.8065;0.0093;-0.0078;-0.0587;0.03;0.11;0.01;54.5;-19.37;4.31;-27.62;77.96;-0.05;-0.29;5.0;33.755;;;;NaN;;;;0 / 0;6162;2022-11-17 13:45:04:338
0.0802;0.0156;9.7462;0.0505;0.0076;9.8065;0.018;-0.0076;-0.0096;0.03;0.11;0.01;54.5;-19.37;4.31;-27.62;77.96;-0.05;-0.29;5.0;40.07;;;;NaN;;;;0 / 0;6173;2022-11-17 13:45:04:349
0.0802;0.0156;9.7462;0.0505;0.0076;9.8065;0.018;-0.0076;-0.0096;0.03;0.11;0.01;54.5;-19.37;4.31;-27.62;77.96;-0.05;-0.29;5.0;40.07;;;;NaN;;;;0 / 0;6183;2022-11-17 13:45:04:359
0.0802;0.0156;9.7462;0.0505;0.0076;9.8065;0.018;-0.0076;-0.0096;0.03;0.11;0.01;54.5;-18.69;4.19;-27.31;77.97;-0.04;-0.3;5.0;40.07;;;;NaN;;;;0 / 0;6192;2022-11-17 13:45:04:368
0.0802;0.0156;9.7462;0.0505;0.0076;9.8065;0.018;-0.0076;-0.0096;0.03;0.11;0.01;54.5;-18.69;4.19;-27.31;77.97;-0.04;-0.3;5.0;40.07;;;;NaN;;;;0 / 0;6203;2022-11-17 13:45:04:379
0.0802;0.0156;9.7462;0.0505;0.0076;9.8065;0.018;-0.0076;-0.0096;0.03;0.11;0.01;54.5;-18.69;4.19;-27.31;77.97;-0.04;-0.3;5.0;40.07;;;;NaN;;;;0 / 0;6212;2022-11-17 13:45:04:388
0.0691;0.0278;9.7618;0.0505;0.0076;9.8065;0.018;-0.0076;-0.0096;0.03;0.11;0.01;54.5;-18.69;4.19;-27.31;77.97;-0.04;-0.3;5.0;40.07;;;;NaN;;;;0 / 0;6222;2022-11-17 13:45:04:398
0.0691;0.0278;9.7618;0.0505;0.0076;9.8065;0.018;-0.0076;-0.0096;0.03;0.11;0.01;54.5;-18.69;4.19;-27.31;77.97;-0.04;-0.3;5.0;40.07;;;;NaN;;;;0 / 0;6232;2022-11-17 13:45:04:408
0.0691;0.0278;9.7618;0.0505;0.0076;9.8065;0.018;-0.0076;-0.0096;0.03;0.11;0.01;54.5;-18.69;4.19;-27.31;77.97;-0.04;-0.3;5.0;40.07;;;;NaN;;;;0 / 0;6242;2022-11-17 13:45:04:418
0.0691;0.0278;9.7618;0.0505;0.0076;9.8065;0.018;-0.0076;-0.0096;0.03;0.11;0.01;54.5;-18.69;4.19;-27.31;77.97;-0.04;-0.3;5.0;40.07;;;;NaN;;;;0 / 0;6253;2022-11-17 13:45:04:429
0.0691;0.0278;9.7618;0.0505;0.0076;9.8065;0.018;-0.0076;-0.0096;0.03;0.11;0.01;54.5;-18.69;4.19;-27.31;77.97;-0.04;-0.3;5.0;40.07;;;;NaN;;;;0 / 0;6262;2022-11-17 13:45:04:438
0.0691;0.0278;9.7618;0.0359;0.0137;9.8065;-0.0163;0.0058;-0.2352;0.03;0.11;0.01;54.5;-18.69;4.19;-27.31;77.97;-0.04;-0.3;5.0;40.07;;;;NaN;;;;0 / 0;6272;2022-11-17 13:45:04:448
0.0691;0.0278;9.7618;0.0359;0.0137;9.8065;-0.0163;0.0058;-0.2352;-1.01;-2.36;0.07;54.5;-18.69;4.19;-27.31;77.97;-0.04;-0.3;5.0;40.07;;;;NaN;;;;0 / 0;6282;2022-11-17 13:45:04:458
0.0691;0.0278;9.7618;0.0359;0.0137;9.8065;-0.0163;0.0058;-0.2352;-1.01;-2.36;0.07;54.5;-18.69;4.19;-27.31;77.97;-0.04;-0.3;5.0;40.07;;;;NaN;;;;0 / 0;6293;2022-11-17 13:45:04:469
0.0691;0.0278;9.7618;0.0359;0.0137;9.8065;-0.0163;0.0058;-0.2352;-1.01;-2.36;0.07;54.5;-18.69;4.19;-27.31;77.97;-0.04;-0.3;5.0;40.07;;;;NaN;;;;0 / 0;6302;2022-11-17 13:45:04:478
0.0691;0.0278;9.7618;0.0359;0.0137;9.8065;-0.0163;0.0058;-0.2352;-1.01;-2.36;0.07;54.5;-18.81;3.75;-27.87;77.93;-0.08;-0.21;5.0;40.07;;;;NaN;;;;0 / 0;6312;2022-11-17 13:45:04:488
0.0691;0.0278;9.7618;0.0359;0.0137;9.8065;-0.0163;0.0058;-0.2352;-1.01;-2.36;0.07;54.5;-18.81;3.75;-27.87;77.93;-0.08;-0.21;5.0;40.07;;;;NaN;;;;0 / 0;6323;2022-11-17 13:45:04:499
0.0691;0.0278;9.7618;0.0359;0.0137;9.8065;-0.0163;0.0058;-0.2352;-1.01;-2.36;0.07;54.5;-18.81;3.75;-27.87;77.93;-0.08;-0.21;5.0;40.07;;;;NaN;;;;0 / 0;6333;2022-11-17 13:45:04:509
0.0691;0.0278;9.7618;0.0359;0.0137;9.8065;-0.0163;0.0058;-0.2352;-1.01;-2.36;0.07;54.5;-18.81;3.75;-27.87;77.93;-0.08;-0.21;5.0;40.07;;;;NaN;;;;0 / 0;6342;2022-11-17 13:45:04:518
0.0896;0.0163;9.8589;0.0359;0.0137;9.8065;-0.0163;0.0058;-0.2352;-1.01;-2.36;0.07;54.5;-18.81;3.75;-27.87;77.93;-0.08;-0.21;5.0;40.07;;;;NaN;;;;0 / 0;6352;2022-11-17 13:45:04:528
0.0896;0.0163;9.8589;0.0359;0.0137;9.8065;-0.0163;0.0058;-0.2352;-1.01;-2.36;0.07;54.5;-18.81;3.75;-27.87;77.93;-0.08;-0.21;5.0;40.07;;;;NaN;;;;0 / 0;6362;2022-11-17 13:45:04:538
0.0896;0.0163;9.8589;0.0524;0.007;9.8065;0.0161;-0.007;-0.039;-1.01;-2.36;0.07;54.5;-18.81;3.75;-27.87;77.93;-0.08;-0.21;5.0;40.07;;;;NaN;;;;0 / 0;6373;2022-11-17 13:45:04:549
0.0896;0.0163;9.8589;0.0524;0.007;9.8065;0.0161;-0.007;-0.039;-1.01;-2.36;0.07;54.5;-18.81;3.75;-27.87;77.93;-0.08;-0.21;5.0;40.07;;;;NaN;;;;0 / 0;6383;2022-11-17 13:45:04:559
0.0896;0.0163;9.8589;0.0524;0.007;9.8065;0.0161;-0.007;-0.039;-1.01;-2.36;0.07;54.5;-18.81;3.75;-27.87;77.93;-0.08;-0.21;5.0;40.07;;;;NaN;;;;0 / 0;6393;2022-11-17 13:45:04:569
0.0896;0.0163;9.8589;0.0524;0.007;9.8065;0.0161;-0.007;-0.039;-1.01;-2.36;0.07;54.5;-18.81;3.75;-27.87;77.93;-0.08;-0.21;5.0;40.07;;;;NaN;;;;0 / 0;6403;2022-11-17 13:45:04:579
0.0896;0.0163;9.8589;0.0524;0.007;9.8065;0.0161;-0.007;-0.039;0.03;0.05;-0.02;54.5;-18.81;3.75;-27.87;77.93;-0.08;-0.21;5.0;40.07;;;;NaN;;;;0 / 0;6412;2022-11-17 13:45:04:588
0.0896;0.0163;9.8589;0.0524;0.007;9.8065;0.0161;-0.007;-0.039;0.03;0.05;-0.02;54.5;-18.81;3.75;-27.87;77.93;-0.08;-0.21;5.0;40.07;;;;NaN;;;;0 / 0;6422;2022-11-17 13:45:04:598
0.0896;0.0163;9.8589;0.0524;0.007;9.8065;0.0161;-0.007;-0.039;0.03;0.05;-0.02;54.5;-19.31;4.06;-27.94;77.96;-0.04;-0.31;5.0;40.07;;;;NaN;;;;0 / 0;6432;2022-11-17 13:45:04:608
0.0896;0.0163;9.8589;0.0524;0.007;9.8065;0.0161;-0.007;-0.039;0.03;0.05;-0.02;54.5;-19.31;4.06;-27.94;77.96;-0.04;-0.31;5.0;40.07;;;;NaN;;;;0 / 0;6443;2022-11-17 13:45:04:619
0.0896;0.0163;9.8589;0.0524;0.007;9.8065;0.0161;-0.007;-0.039;0.03;0.05;-0.02;54.5;-19.31;4.06;-27.94;77.96;-0.04;-0.31;5.0;40.07;;;;NaN;;;;0 / 0;6453;2022-11-17 13:45:04:629
0.0896;0.0163;9.8589;0.0524;0.007;9.8065;0.0161;-0.007;-0.039;0.03;0.05;-0.02;54.5;-19.31;4.06;-27.94;77.96;-0.04;-0.31;5.0;40.07;;;;NaN;;;;0 / 0;6463;2022-11-17 13:45:04:639
0.0896;0.0163;9.8589;0.0487;0.0087;9.8065;0.0198;0.001;-0.0587;0.03;0.05;-0.02;54.5;-19.31;4.06;-27.94;77.96;-0.04;-0.31;5.0;40.07;;;;NaN;;;;0 / 0;6473;2022-11-17 13:45:04:649
0.0693;0.011;9.7444;0.0487;0.0087;9.8065;0.0198;0.001;-0.0587;0.03;0.05;-0.02;54.5;-19.31;4.06;-27.94;77.96;-0.04;-0.31;5.0;40.07;;;;NaN;;;;0 / 0;6482;2022-11-17 13:45:04:658
0.0693;0.011;9.7444;0.0487;0.0087;9.8065;0.0198;0.001;-0.0587;0.03;0.05;-0.02;54.5;-19.31;4.06;-27.94;77.96;-0.04;-0.31;5.0;40.07;;;;NaN;;;;0 / 0;6493;2022-11-17 13:45:04:669
0.0693;0.011;9.7444;0.0487;0.0087;9.8065;0.0198;0.001;-0.0587;0.03;0.05;-0.02;54.5;-19.31;4.06;-27.94;77.96;-0.04;-0.31;5.0;40.07;;;;NaN;;;;0 / 0;6503;2022-11-17 13:45:04:679
0.0693;0.011;9.7444;0.0487;0.0087;9.8065;0.0198;0.001;-0.0587;0.03;0.05;-0.02;54.5;-19.31;4.06;-27.94;77.96;-0.04;-0.31;5.0;32.511;;;;NaN;;;;0 / 0;6512;2022-11-17 13:45:04:688
0.0693;0.011;9.7444;0.0487;0.0087;9.8065;0.0198;0.001;-0.0587;0.03;0.05;-0.02;54.5;-19.31;4.06;-27.94;77.96;-0.04;-0.31;5.0;32.511;;;;NaN;;;;0 / 0;6522;2022-11-17 13:45:04:698
0.0693;0.011;9.7444;0.0487;0.0087;9.8065;0.0198;0.001;-0.0587;0.03;0.05;-0.02;54.5;-19.31;4.06;-27.94;77.96;-0.04;-0.31;5.0;32.511;;;;NaN;;;;0 / 0;6533;2022-11-17 13:45:04:709
0.0693;0.011;9.7444;0.0487;0.0087;9.8065;0.0198;0.001;-0.0587;0.03;0.05;-0.02;54.5;-19.31;4.06;-27.94;77.96;-0.04;-0.31;5.0;32.511;;;;NaN;;;;0 / 0;6542;2022-11-17 13:45:04:718
0.0693;0.011;9.7444;0.0487;0.0087;9.8065;0.0198;0.001;-0.0587;0.03;-0.04;0.01;54.5;-19.0;4.63;-27.62;75.08;-0.05;-0.28;5.0;32.511;;;;NaN;;;;0 / 0;6552;2022-11-17 13:45:04:728
0.0693;0.011;9.7444;0.0487;0.0087;9.8065;0.0198;0.001;-0.0587;0.03;-0.04;0.01;54.5;-19.0;4.63;-27.62;75.08;-0.05;-0.28;5.0;32.511;;;;NaN;;;;0 / 0;6562;2022-11-17 13:45:04:738
0.0693;0.011;9.7444;0.0485;0.0085;9.8065;0.0102;-0.0085;-0.0685;0.03;-0.04;0.01;54.5;-19.0;4.63;-27.62;75.08;-0.05;-0.28;5.0;32.511;;;;NaN;;;;0 / 0;6572;2022-11-17 13:45:04:748
0.0693;0.011;9.7444;0.0485;0.0085;9.8065;0.0102;-0.0085;-0.0685;0.03;-0.04;0.01;54.5;-19.0;4.63;-27.62;75.08;-0.05;-0.28;5.0;32.511;;;;NaN;;;;0 / 0;6582;2022-11-17 13:45:04:758
0.0693;0.011;9.7444;0.0485;0.0085;9.8065;0.0102;-0.0085;-0.0685;0.03;-0.04;0.01;54.5;-19.0;4.63;-27.62;75.08;-0.05;-0.28;5.0;32.511;;;;NaN;;;;0 / 0;6592;2022-11-17 13:45:04:768
0.0693;0.011;9.7444;0.0485;0.0085;9.8065;0.0102;-0.0085;-0.0685;0.03;-0.04;0.01;54.5;-19.0;4.63;-27.62;75.08;-0.05;-0.28;5.0;32.511;;;;NaN;;;;0 / 0;6602;2022-11-17 13:45:04:778
0.0785;0.0099;9.7447;0.0485;0.0085;9.8065;0.0102;-0.0085;-0.0685;0.03;-0.04;0.01;54.5;-19.0;4.63;-27.62;75.08;-0.05;-0.28;5.0;32.511;;;;NaN;;;;0 / 0;6612;2022-11-17 13:45:04:788
0.0785;0.0099;9.7447;0.0485;0.0085;9.8065;0.0102;-0.0085;-0.0685;0.03;-0.04;0.01;54.5;-19.0;4.63;-27.62;75.08;-0.05;-0.28;5.0;32.511;;;;NaN;;;;0 / 0;6622;2022-11-17 13:45:04:798
0.0785;0.0099;9.7447;0.0485;0.0085;9.8065;0.0102;-0.0085;-0.0685;0.03;-0.04;0.01;54.5;-19.0;4.63;-27.62;75.08;-0.05;-0.28;5.0;32.511;;;;NaN;;;;0 / 0;6632;2022-11-17 13:45:04:808
0.0785;0.0099;9.7447;0.0485;0.0085;9.8065;0.0102;-0.0085;-0.0685;0.03;-0.04;0.01;54.5;-19.0;4.63;-27.62;75.08;-0.05;-0.28;5.0;32.511;;;;NaN;;;;0 / 0;6642;2022-11-17 13:45:04:818
0.0785;0.0099;9.7447;0.0485;0.0085;9.8065;0.0102;-0.0085;-0.0685;0.03;-0.04;0.01;54.5;-19.0;4.63;-27.62;75.08;-0.05;-0.28;5.0;32.511;;;;NaN;;;;0 / 0;6652;2022-11-17 13:45:04:828
0.0785;0.0099;9.7447;0.0485;0.0085;9.8065;0.0102;-0.0085;-0.0685;0.03;-0.04;0.01;54.5;-19.0;4.63;-27.62;75.08;-0.05;-0.28;5.0;32.511;;;;NaN;;;;0 / 0;6662;2022-11-17 13:45:04:838
0.0785;0.0099;9.7447;0.0484;0.0084;9.8065;0.0202;0.0013;-0.0587;0.03;-0.04;0.01;54.5;-19.94;4.25;-27.62;78.55;-0.05;-0.28;5.0;32.511;;;;NaN;;;;0 / 0;6672;2022-11-17 13:45:04:848
0.0785;0.0099;9.7447;0.0484;0.0084;9.8065;0.0202;0.0013;-0.0587;0.0;-0.13;-0.02;54.5;-19.94;4.25;-27.62;78.55;-0.05;-0.28;5.0;32.511;;;;NaN;;;;0 / 0;6682;2022-11-17 13:45:04:858
0.0785;0.0099;9.7447;0.0484;0.0084;9.8065;0.0202;0.0013;-0.0587;0.0;-0.13;-0.02;54.5;-19.94;4.25;-27.62;78.55;-0.05;-0.28;5.0;32.511;;;;NaN;;;;0 / 0;6692;2022-11-17 13:45:04:868
0.0785;0.0099;9.7447;0.0484;0.0084;9.8065;0.0202;0.0013;-0.0587;0.0;-0.13;-0.02;54.5;-19.94;4.25;-27.62;78.55;-0.05;-0.28;5.0;32.511;;;;NaN;;;;0 / 0;6703;2022-11-17 13:45:04:879
0.0785;0.0099;9.7447;0.0484;0.0084;9.8065;0.0202;0.0013;-0.0587;0.0;-0.13;-0.02;54.5;-19.94;4.25;-27.62;78.55;-0.05;-0.28;5.0;32.511;;;;NaN;;;;0 / 0;6713;2022-11-17 13:45:04:889
0.0785;0.0099;9.7447;0.0484;0.0084;9.8065;0.0202;0.0013;-0.0587;0.0;-0.13;-0.02;54.5;-19.94;4.25;-27.62;78.55;-0.05;-0.28;5.0;32.511;;;;NaN;;;;0 / 0;6723;2022-11-17 13:45:04:899
0.0785;0.0099;9.7447;0.0484;0.0084;9.8065;0.0202;0.0013;-0.0587;0.0;-0.13;-0.02;54.5;-19.94;4.25;-27.62;78.55;-0.05;-0.28;5.0;32.511;;;;NaN;;;;0 / 0;6732;2022-11-17 13:45:04:908
0.0785;0.0099;9.7447;0.0484;0.0084;9.8065;0.0202;0.0013;-0.0587;0.0;-0.13;-0.02;54.5;-19.94;4.25;-27.62;78.55;-0.05;-0.28;5.0;32.511;;;;NaN;;;;0 / 0;6742;2022-11-17 13:45:04:918
0.0772;0.0063;9.7231;0.0484;0.0084;9.8065;0.0202;0.0013;-0.0587;0.0;-0.13;-0.02;54.5;-19.94;4.25;-27.62;78.55;-0.05;-0.28;5.0;32.511;;;;NaN;;;;0 / 0;6752;2022-11-17 13:45:04:928
0.0772;0.0063;9.7231;0.0484;0.0084;9.8065;0.0202;0.0013;-0.0587;0.0;-0.13;-0.02;54.5;-19.94;4.25;-27.62;78.55;-0.05;-0.28;5.0;32.511;;;;NaN;;;;0 / 0;6762;2022-11-17 13:45:04:938
0.0772;0.0063;9.7231;0.0499;0.0081;9.8065;0.0285;-0.0081;-0.0685;0.0;-0.13;-0.02;54.5;-19.94;4.25;-27.62;78.55;-0.05;-0.28;5.0;32.511;;;;NaN;;;;0 / 0;6772;2022-11-17 13:45:04:948
0.0772;0.0063;9.7231;0.0499;0.0081;9.8065;0.0285;-0.0081;-0.0685;0.0;-0.13;-0.02;54.5;-19.94;4.25;-27.62;78.55;-0.05;-0.28;5.0;32.511;;;;NaN;;;;0 / 0;6782;2022-11-17 13:45:04:958
0.0772;0.0063;9.7231;0.0499;0.0081;9.8065;0.0285;-0.0081;-0.0685;0.0;-0.13;-0.02;54.5;-19.12;3.88;-27.56;77.96;-0.05;-0.29;5.0;32.511;;;;NaN;;;;0 / 0;6792;2022-11-17 13:45:04:968
