"Time (s)","Acceleration x (m/s^2)","Acceleration y (m/s^2)","Acceleration z (m/s^2)","Absolute acceleration (m/s^2)"
8.313780000E-4,-4.585375264E-2,-1.610818878E-2,9.726683617E0,9.726805037E0
2.793878000E-3,-3.864241391E-2,-2.240972780E-2,9.751439095E0,9.751541409E0
4.793878000E-3,-3.317405656E-2,-2.761951089E-2,9.767940521E0,9.768035902E0
6.793878000E-3,-3.314532712E-2,-2.659479342E-2,9.776119232E0,9.776211594E0
8.793878000E-3,-3.037763014E-2,-2.305137366E-2,9.765555382E0,9.765629835E0
1.079387800E-2,-3.106716089E-2,-2.378878742E-2,9.752388000E0,9.752466498E0
1.279387800E-2,-3.694731742E-2,-2.610637434E-2,9.738118172E0,9.738223255E0
1.479387800E-2,-3.526180238E-2,-2.898899466E-2,9.730016708E0,9.730123787E0
1.679387800E-2,-2.421974391E-2,-2.533065341E-2,9.729068756E0,9.729131878E0
1.879387800E-2,-2.085828595E-2,-2.514869533E-2,9.738693237E0,9.738748046E0
2.097044100E-2,-2.774400823E-2,-2.932418324E-2,9.762357712E0,9.762441177E0
2.279387800E-2,-2.615425922E-2,-3.055001423E-2,9.785313606E0,9.785396248E0
2.479387800E-2,-1.751597971E-2,-3.159388527E-2,9.795350075E0,9.795416687E0
2.679387800E-2,-1.843535155E-2,-3.277183324E-2,9.792514801E0,9.792586991E0
2.879387800E-2,-1.999637298E-2,-3.297294676E-2,9.776924133E0,9.777000183E0
3.079387800E-2,-2.337698638E-2,-4.035666212E-2,9.755337715E0,9.755449199E0
3.279544100E-2,-2.398990095E-2,-4.135265201E-2,9.733636856E0,9.733754260E0
3.479387800E-2,-2.137543261E-2,-4.840118065E-2,9.721817970E0,9.721961954E0
3.679387800E-2,-2.822284959E-2,-4.888001829E-2,9.725764275E0,9.725928054E0
3.893919100E-2,-3.456269577E-2,-4.425442591E-2,9.735992432E0,9.736154357E0
4.079387800E-2,-2.237142064E-2,-4.193683714E-2,9.766781807E0,9.766897463E0
4.279387800E-2,-1.947922446E-2,-4.344997555E-2,9.778762817E0,9.778878749E0
4.479387800E-2,-2.111686021E-2,-4.725196585E-2,9.777756691E0,9.777893668E0
4.679544100E-2,-1.750640385E-2,-4.680185392E-2,9.774213791E0,9.774341518E0
4.879544100E-2,-1.543781254E-2,-4.259763658E-2,9.763861656E0,9.763966782E0
5.079544100E-2,-2.259168774E-2,-3.547249362E-2,9.756659508E0,9.756750147E0
5.279544100E-2,-3.398808837E-2,-2.992752008E-2,9.752589226E0,9.752694369E0
5.479544100E-2,-4.559517652E-2,-2.673844621E-2,9.762845993E0,9.762989079E0
5.679387800E-2,-4.838202521E-2,-2.092532441E-2,9.769290924E0,9.769433139E0
5.879387800E-2,-4.997177795E-2,-1.824381575E-2,9.773524284E0,9.773669063E0
6.079387800E-2,-4.495352879E-2,-2.742797509E-2,9.782909393E0,9.783051125E0
6.279387800E-2,-2.892195620E-2,-3.131615743E-2,9.780362129E0,9.780455028E0
6.479387800E-2,-3.229299188E-2,-2.738009021E-2,9.770325661E0,9.770417392E0
6.679387800E-2,-2.939121984E-2,-3.256114200E-2,9.754369736E0,9.754468361E0
6.879544100E-2,-2.278322354E-2,-3.110546805E-2,9.743453026E0,9.743529314E0
7.079544100E-2,-1.790862903E-2,-1.902911626E-2,9.742389679E0,9.742424723E0
7.279544100E-2,-2.362598293E-2,-1.617522538E-2,9.747063637E0,9.747105692E0
7.479544100E-2,-2.788766101E-2,-1.536119822E-2,9.747330666E0,9.747382664E0
7.679544100E-2,-2.835692465E-2,-1.957499236E-2,9.751276970E0,9.751337849E0
7.879387800E-2,-2.861549892E-2,-2.578076348E-2,9.755337715E0,9.755413750E0
8.079387800E-2,-2.082955465E-2,-2.487096749E-2,9.763975143E0,9.764029037E0
8.279387800E-2,-2.295560576E-2,-2.144247107E-2,9.762405396E0,9.762455933E0
8.479387800E-2,-2.308968082E-2,-1.701798663E-2,9.760958672E0,9.761000816E0
8.679387800E-2,-2.758120373E-2,-1.723825186E-2,9.753911018E0,9.753965247E0
8.879387800E-2,-3.688028455E-2,-1.870350540E-2,9.751133919E0,9.751221599E0
9.079387800E-2,-3.618117422E-2,-1.807143353E-2,9.752215385E0,9.752299246E0
9.279387800E-2,-3.286759928E-2,-2.070505731E-2,9.758048058E0,9.758125377E0
9.479387800E-2,-2.680548280E-2,-1.982399076E-2,9.761094093E0,9.761151030E0
9.679387800E-2,-2.539769188E-2,-1.982399076E-2,9.760460854E0,9.760514029E0
9.879387800E-2,-3.081816435E-2,-2.303222008E-2,9.760087967E0,9.760163798E0
1.009704410E-1,-3.064578213E-2,-3.138319403E-2,9.759531975E0,9.759630548E0
1.027954410E-1,-2.718855441E-2,-2.951571904E-2,9.749725342E0,9.749807928E0
1.047954410E-1,-2.045605890E-2,-3.506068885E-2,9.747206688E0,9.747291209E0
1.067954410E-1,-1.891419478E-2,-3.240791336E-2,9.741518974E0,9.741591243E0
1.087954410E-1,-2.190215699E-2,-2.899857052E-2,9.738387108E0,9.738454913E0
1.107954410E-1,-2.063801885E-2,-2.254380286E-2,9.742830276E0,9.742878217E0
1.127954410E-1,-2.129881829E-2,-2.123178169E-2,9.746450424E0,9.746496822E0
1.147938780E-1,-2.172977477E-2,-2.885491960E-2,9.754819870E0,9.754886749E0
1.167938780E-1,-2.426762693E-2,-3.789542243E-2,9.762730598E0,9.762834308E0
1.187938780E-1,-2.715024725E-2,-3.563529998E-2,9.761763573E0,9.761866372E0
1.209704410E-1,-3.249410540E-2,-3.893929720E-2,9.760825157E0,9.760956914E0
1.227938780E-1,-2.391328663E-2,-3.580768034E-2,9.755203247E0,9.755298275E0
1.247938780E-1,-1.569638588E-2,-3.604710102E-2,9.757846832E0,9.757926038E0
1.267938780E-1,-1.344583742E-2,-3.899675608E-2,9.758823395E0,9.758910574E0
1.287938780E-1,-2.005383372E-2,-3.886268288E-2,9.759723663E0,9.759821640E0
1.307954410E-1,-1.803312637E-2,-3.231214359E-2,9.759780884E0,9.759851032E0
1.327954410E-1,-2.130839601E-2,-3.066493571E-2,9.759560585E0,9.759632022E0
1.347954410E-1,-1.886630990E-2,-3.649721295E-2,9.760604858E0,9.760691327E0
1.367938780E-1,-2.358767577E-2,-4.123773053E-2,9.760164261E0,9.760279880E0
1.387938780E-1,-2.825157903E-2,-3.742616251E-2,9.753584862E0,9.753697582E0
1.407938780E-1,-3.676536307E-2,-3.563529998E-2,9.748068810E0,9.748203275E0
1.427938780E-1,-3.488830477E-2,-4.022258893E-2,9.746374130E0,9.746519570E0
1.447938780E-1,-3.474465385E-2,-3.265691176E-2,9.753643036E0,9.753759590E0
1.467938780E-1,-3.401681781E-2,-2.752374299E-2,9.761245728E0,9.761343804E0
1.487938780E-1,-3.355713189E-2,-2.480393089E-2,9.762223244E0,9.762312430E0
1.507938780E-1,-2.418143675E-2,-2.798342891E-2,9.753881454E0,9.753951571E0
1.527938780E-1,-2.416228317E-2,-3.671747446E-2,9.753317833E0,9.753416875E0
1.547938780E-1,-1.984314434E-2,-2.828031033E-2,9.755873680E0,9.755934850E0
1.567954410E-1,-1.528458390E-2,-2.191173285E-2,9.753863335E0,9.753899922E0
1.587938780E-1,-1.608903520E-2,-2.743755095E-2,9.758708954E0,9.758760788E0
1.607938780E-1,-2.089659311E-2,-2.045605890E-2,9.758152962E0,9.758196777E0
1.627938780E-1,-2.601060644E-2,-2.039859816E-2,9.762692451E0,9.762748412E0
1.647938780E-1,-3.261860460E-2,-2.311841212E-2,9.762108803E0,9.762190672E0
1.667938780E-1,-3.332728520E-2,-2.420059033E-2,9.759666443E0,9.759753350E0
1.687938780E-1,-3.047339991E-2,-2.279280126E-2,9.756381989E0,9.756456203E0
1.707938780E-1,-3.515645489E-2,-1.606988162E-2,9.757099152E0,9.757175722E0
1.727938780E-1,-4.669651017E-2,-7.105990313E-3,9.755155563E0,9.755269916E0
1.747938780E-1,-4.149630293E-2,-8.676586673E-3,9.757530212E0,9.757622306E0
1.767938780E-1,-3.802949935E-2,-1.474828273E-2,9.753958702E0,9.754043988E0
1.787938780E-1,-3.950433061E-2,-1.612734236E-2,9.759666443E0,9.759759718E0
1.809704410E-1,-4.508760571E-2,-2.221819200E-2,9.759024620E0,9.759154066E0
1.827938780E-1,-3.754108399E-2,-1.955583878E-2,9.756429672E0,9.756521497E0
1.847938780E-1,-3.282929212E-2,-2.149035409E-2,9.751411438E0,9.751490380E0
1.867938780E-1,-2.942952700E-2,-3.082774207E-2,9.748643875E0,9.748737039E0
1.887938780E-1,-2.534980699E-2,-3.135446459E-2,9.751420975E0,9.751504332E0
1.907938780E-1,-2.725559287E-2,-2.524446324E-2,9.749112129E0,9.749182912E0
1.927938780E-1,-2.664267644E-2,-2.034113742E-2,9.754810333E0,9.754867925E0
1.947938780E-1,-2.988921292E-2,-2.216073126E-2,9.757041931E0,9.757112878E0
1.967938780E-1,-3.854664788E-2,-2.541684546E-2,9.758756638E0,9.758865865E0
1.987938780E-1,-3.680367023E-2,-2.903687768E-2,9.768151283E0,9.768263773E0
2.007938780E-1,-3.745489195E-2,-2.855803818E-2,9.765440941E0,9.765554526E0
2.027938780E-1,-3.575022146E-2,-2.941995114E-2,9.754839897E0,9.754949771E0
2.047938780E-1,-3.736870363E-2,-3.418920189E-2,9.755778313E0,9.755909789E0
2.067938780E-1,-4.091211781E-2,-3.996401653E-2,9.750875473E0,9.751043196E0
2.087938780E-1,-3.996401653E-2,-3.681324422E-2,9.747092247E0,9.747243693E0
2.107938780E-1,-3.117250651E-2,-3.364332020E-2,9.748106956E0,9.748214854E0
2.127938780E-1,-3.818272799E-2,-3.250367939E-2,9.754830360E0,9.754959240E0
2.147938780E-1,-3.643017262E-2,-3.055001423E-2,9.757884979E0,9.758000806E0
2.167938780E-1,-3.379655257E-2,-2.419101261E-2,9.763678551E0,9.763767011E0
2.187938780E-1,-3.303998336E-2,-2.080082521E-2,9.766935349E0,9.767013383E0
2.207938780E-1,-2.838565409E-2,-1.871308126E-2,9.764225006E0,9.764284198E0
2.227938780E-1,-2.953487262E-2,-2.347275428E-2,9.765001297E0,9.765074173E0
2.247938780E-1,-2.870169096E-2,-2.708321065E-2,9.765028954E0,9.765108691E0
2.267938780E-1,-2.871126682E-2,-3.109589219E-2,9.766149521E0,9.766241230E0
2.287938780E-1,-2.611595206E-2,-3.394020349E-2,9.770459175E0,9.770553028E0
2.307938780E-1,-2.557964996E-2,-2.938164398E-2,9.776052475E0,9.776130093E0
2.327938780E-1,-3.032974713E-2,-2.498588897E-2,9.777890205E0,9.777969168E0
2.347938780E-1,-4.020343348E-2,-2.663310058E-2,9.769826889E0,9.769945910E0
2.367938780E-1,-3.671747446E-2,-2.841438539E-2,9.764301300E0,9.764411679E0
2.387954410E-1,-3.126827255E-2,-2.849100158E-2,9.763411522E0,9.763503162E0
2.407938780E-1,-3.059789911E-2,-2.452620305E-2,9.753919601E0,9.753998429E0
2.427938780E-1,-2.693955787E-2,-2.129881829E-2,9.742562294E0,9.742622821E0
2.447938780E-1,-2.195004001E-2,-2.224692143E-2,9.745109558E0,9.745159672E0
2.467938780E-1,-1.324472390E-2,-2.007298730E-2,9.746067047E0,9.746096718E0
2.487938780E-1,-1.220085099E-2,-2.112643607E-2,9.750693321E0,9.750723841E0
2.507938780E-1,-1.436521020E-2,-2.342486940E-2,9.758622169E0,9.758660857E0
2.527938780E-1,-2.084870823E-2,-2.493800595E-2,9.760978699E0,9.761032821E0
2.547938780E-1,-2.211284637E-2,-2.447831817E-2,9.762337685E0,9.762393417E0
2.567954410E-1,-1.924938150E-2,-2.111686021E-2,9.764377594E0,9.764419402E0
2.587938780E-1,-1.571553946E-2,-1.875138842E-2,9.767778397E0,9.767809038E0
2.611626280E-1,-2.136585675E-2,-1.811931841E-2,9.768621445E0,9.768661615E0
2.627938780E-1,-2.402820811E-2,-2.382709458E-2,9.771427155E0,9.771485748E0
2.647938780E-1,-2.033155970E-2,-2.452620305E-2,9.769147873E0,9.769199817E0
2.667938780E-1,-2.184469625E-2,-2.435381897E-2,9.766868591E0,9.766923383E0
2.687938780E-1,-2.752374299E-2,-2.283110842E-2,9.764865875E0,9.764931355E0
2.707954410E-1,-3.706223890E-2,-2.408566885E-2,9.765288353E0,9.765388387E0
2.727938780E-1,-3.985866904E-2,-2.189257927E-2,9.765211105E0,9.765316991E0
2.747938780E-1,-3.975332528E-2,-2.054224908E-2,9.761677742E0,9.761780301E0
2.767970030E-1,-3.866156936E-2,-1.787989773E-2,9.753863335E0,9.753956344E0
2.787938780E-1,-3.299209848E-2,-2.243845724E-2,9.752838135E0,9.752919750E0
2.807938780E-1,-2.851015516E-2,-2.902730182E-2,9.758900642E0,9.758985458E0
2.827938780E-1,-3.162261471E-2,-2.104982175E-2,9.754082680E0,9.754156653E0
2.847938780E-1,-3.898717836E-2,-1.677856594E-2,9.755098343E0,9.755190680E0
2.867938780E-1,-3.794331104E-2,-9.988609701E-3,9.755491257E0,9.755570159E0
2.887938780E-1,-3.608540818E-2,-7.671022322E-3,9.756420135E0,9.756489884E0
2.907938780E-1,-3.045424633E-2,-3.265690990E-3,9.756946564E0,9.756994638E0
2.927938780E-1,-2.508165687E-2,-1.158793643E-2,9.757463455E0,9.757502572E0
2.947938780E-1,-2.888364904E-2,-1.125274785E-2,9.756361961E0,9.756411205E0
2.967938780E-1,-3.063620627E-2,-4.855440930E-3,9.755931854E0,9.755981165E0
2.987938780E-1,-2.648944780E-2,-3.409343306E-3,9.757865906E0,9.757902456E0
3.007938780E-1,-3.099054657E-2,-8.465897292E-3,9.762769699E0,9.762822557E0
3.027938780E-1,-3.841257095E-2,-1.292868890E-2,9.763947487E0,9.764031606E0
3.047938780E-1,-4.324885830E-2,-1.742021181E-2,9.767710686E0,9.767821966E0
3.067938780E-1,-3.548207134E-2,-2.181596495E-2,9.769625664E0,9.769714455E0
3.087938780E-1,-2.780146897E-2,-1.521754637E-2,9.760211945E0,9.760263403E0
3.107938780E-1,-2.980302274E-2,-1.375229470E-2,9.754015923E0,9.754071148E0
3.127938780E-1,-3.632482886E-2,-1.032379828E-2,9.750396729E0,9.750469857E0
3.147938780E-1,-3.683239594E-2,-3.016694076E-2,9.754437447E0,9.754553632E0
3.167938780E-1,-3.417004645E-2,-2.649902552E-2,9.758661270E0,9.758757071E0
3.187938780E-1,-2.179681137E-2,-2.409524471E-2,9.761993408E0,9.762047479E0
3.209423160E-1,-2.755247243E-2,-1.993891224E-2,9.755270958E0,9.755330244E0
3.230798160E-1,-2.971683070E-2,-2.467943169E-2,9.756055832E0,9.756132305E0
3.248313780E-1,-3.566402942E-2,-2.840480767E-2,9.763248444E0,9.763354901E0
3.267954410E-1,-4.205175862E-2,-3.415089473E-2,9.763909340E0,9.764059618E0
3.287954410E-1,-4.801810905E-2,-3.252283484E-2,9.763199806E0,9.763372057E0
3.307954410E-1,-4.909071326E-2,-3.004244156E-2,9.768027306E0,9.768196860E0
3.327954410E-1,-4.294240102E-2,-3.044467047E-2,9.761524200E0,9.761666131E0
3.347954410E-1,-4.625597596E-2,-2.892195620E-2,9.764608383E0,9.764760774E0
3.367954410E-1,-4.366066307E-2,-2.547430620E-2,9.759866714E0,9.759997617E0
3.387938780E-1,-4.333505407E-2,-2.081040107E-2,9.751803398E0,9.751921888E0
3.409704410E-1,-3.985866904E-2,-2.208411507E-2,9.750636101E0,9.750742576E0
3.427954410E-1,-3.188119084E-2,-3.386358917E-2,9.747129440E0,9.747240403E0
3.447938780E-1,-2.233311348E-2,-3.660255298E-2,9.741757393E0,9.741851755E0
3.467938780E-1,-2.941995114E-2,-3.916914016E-2,9.742170334E0,9.742293496E0
3.487954410E-1,-3.699520603E-2,-4.105577245E-2,9.747350693E0,9.747507361E0
3.507954410E-1,-3.347093984E-2,-3.545333818E-2,9.750213623E0,9.750335530E0
3.527938780E-1,-2.834734693E-2,-2.436339483E-2,9.753863335E0,9.753934955E0
3.547954410E-1,-3.525222465E-2,-2.138501033E-2,9.756496429E0,9.756583552E0
3.567938780E-1,-3.239833936E-2,-2.251507156E-2,9.762817383E0,9.762897102E0
3.587938780E-1,-3.488830477E-2,-2.370259725E-2,9.762118340E0,9.762209457E0
3.607938780E-1,-4.063438997E-2,-3.087562509E-2,9.761141777E0,9.761275186E0
3.627938780E-1,-3.821146116E-2,-2.398032323E-2,9.763276100E0,9.763380325E0
3.647938780E-1,-4.128561541E-2,-2.023579180E-2,9.765527725E0,9.765635962E0
3.667938780E-1,-3.853707016E-2,-1.942176372E-2,9.766638756E0,9.766734096E0
3.687938780E-1,-4.227202758E-2,-1.666364260E-2,9.767778397E0,9.767884080E0
3.707938780E-1,-4.186980054E-2,-1.701798663E-2,9.765690804E0,9.765795388E0
3.727938780E-1,-4.142926633E-2,-1.742021181E-2,9.766734123E0,9.766837527E0
3.747938780E-1,-3.598963842E-2,-2.024536952E-2,9.766274452E0,9.766361749E0
3.767938780E-1,-3.032016940E-2,-2.163400687E-2,9.766715050E0,9.766786074E0
3.787938780E-1,-2.631706372E-2,-1.448970847E-2,9.764626503E0,9.764672718E0
3.807938780E-1,-3.231214359E-2,-1.010353118E-2,9.766848564E0,9.766907240E0
3.827938780E-1,-3.542460874E-2,-1.659660600E-2,9.771091461E0,9.771169771E0
3.847938780E-1,-3.692816570E-2,-2.143289335E-2,9.762022018E0,9.762115393E0
3.867938780E-1,-3.118208237E-2,-2.449747175E-2,9.755443573E0,9.755524166E0
3.887954410E-1,-3.407428041E-2,-1.663491316E-2,9.761333466E0,9.761407112E0
3.907938780E-1,-3.598963842E-2,-2.266830206E-2,9.767068863E0,9.767161475E0
3.927938780E-1,-3.161304072E-2,-2.658521570E-2,9.774730682E0,9.774817956E0
3.947938780E-1,-3.762727231E-2,-2.103066817E-2,9.776694298E0,9.776789324E0
3.967954410E-1,-4.040454701E-2,-1.844492927E-2,9.779336929E0,9.779437792E0
3.987938780E-1,-4.072058201E-2,-1.742021181E-2,9.781492233E0,9.781592505E0
4.007938780E-1,-4.119942337E-2,-1.437478699E-2,9.774730682E0,9.774828077E0
4.027938780E-1,-3.890099004E-2,-1.453759335E-2,9.769885063E0,9.769973325E0
4.047938780E-1,-4.095042497E-2,-2.048478834E-2,9.773811340E0,9.773918594E0
4.067938780E-1,-3.612371534E-2,-2.157654613E-2,9.772068024E0,9.772158612E0
4.087954410E-1,-3.057874553E-2,-1.789905131E-2,9.769885063E0,9.769949313E0
4.107938780E-1,-2.745670453E-2,-1.464293804E-2,9.768209457E0,9.768259020E0
4.127938780E-1,-2.292687632E-2,-2.052309550E-2,9.766647339E0,9.766695812E0
4.147938780E-1,-1.825339347E-2,-2.177765779E-2,9.763678551E0,9.763719900E0
4.167938780E-1,-2.095405385E-2,-2.352063730E-2,9.760154724E0,9.760205558E0
4.187938780E-1,-1.382890902E-2,-2.267787978E-2,9.756888390E0,9.756924545E0
4.209704410E-1,-2.619256638E-2,-1.555273402E-2,9.761284828E0,9.761332360E0
4.227938780E-1,-3.337517008E-2,-1.437478699E-2,9.760087967E0,9.760155617E0
4.247954410E-1,-2.613510564E-2,-2.106897533E-2,9.762405396E0,9.762463114E0
4.267938780E-1,-2.504334971E-2,-2.488054521E-2,9.767979622E0,9.768043412E0
4.287938780E-1,-3.196737915E-2,-1.956541650E-2,9.773198128E0,9.773269993E0
4.307938780E-1,-3.390189633E-2,-2.168188989E-2,9.770689011E0,9.770771883E0
4.327938780E-1,-3.610455990E-2,-2.193088643E-2,9.771302223E0,9.771393536E0
4.347938780E-1,-3.622906283E-2,-2.217030711E-2,9.768342972E0,9.768435314E0
4.367938780E-1,-3.860410675E-2,-2.282153070E-2,9.767203331E0,9.767306282E0
4.387938780E-1,-3.743573651E-2,-2.363555878E-2,9.762941360E0,9.763041743E0
4.407938780E-1,-3.494576737E-2,-1.861731149E-2,9.760739326E0,9.760819638E0
4.427938780E-1,-2.247676440E-2,-1.700840890E-2,9.762156487E0,9.762197179E0
4.447938780E-1,-2.156696841E-2,-2.038902044E-2,9.764492989E0,9.764538093E0
4.467938780E-1,-2.538811415E-2,-1.709460095E-2,9.764435768E0,9.764483737E0
4.487938780E-1,-2.353021502E-2,-1.399171446E-2,9.760652542E0,9.760690933E0
4.507938780E-1,-2.551261336E-2,-9.279925376E-3,9.755146027E0,9.755183802E0
4.527938780E-1,-3.275267780E-2,-1.019929908E-2,9.757846832E0,9.757907130E0
4.547938780E-1,-3.693774343E-2,-1.212423667E-2,9.755328178E0,9.755405643E0
4.567938780E-1,-3.149811924E-2,-1.625183970E-2,9.751152039E0,9.751216454E0
4.587938780E-1,-2.496673539E-2,-1.731486619E-2,9.748203278E0,9.748250627E0
4.607938780E-1,-2.425805107E-2,-1.431732625E-2,9.747178078E0,9.747218779E0
4.627938780E-1,-2.473689243E-2,-1.357033569E-2,9.746948242E0,9.746989079E0
4.647938780E-1,-3.166092187E-2,-1.644337736E-2,9.739554405E0,9.739619747E0
4.668595030E-1,-3.391147405E-2,-1.717121527E-2,9.739928246E0,9.740002416E0
4.687938780E-1,-2.714067139E-2,-2.444000915E-2,9.748404503E0,9.748472920E0
4.709704410E-1,-2.578076348E-2,-2.040817402E-2,9.753403664E0,9.753459087E0
4.727938780E-1,-2.246718854E-2,-2.114558965E-2,9.761897087E0,9.761945843E0
4.747938780E-1,-1.606030390E-2,-2.969767712E-2,9.756888390E0,9.756946804E0
4.767938780E-1,-2.788766101E-2,-2.558922768E-2,9.758996010E0,9.759069405E0
4.787938780E-1,-3.201526776E-2,-2.723643929E-2,9.757884979E0,9.757975511E0
4.807938780E-1,-3.371993452E-2,-2.393244021E-2,9.753757477E0,9.753845124E0
4.829391910E-1,-2.913264744E-2,-2.334825508E-2,9.754274368E0,9.754345816E0
4.847938780E-1,-2.959233336E-2,-2.627875656E-2,9.755270958E0,9.755351236E0
4.867938780E-1,-3.069366701E-2,-2.486139163E-2,9.752167702E0,9.752247693E0
4.887938780E-1,-3.072239645E-2,-2.473689243E-2,9.746000290E0,9.746080106E0
4.907938780E-1,-2.928587608E-2,-2.247676440E-2,9.746344566E0,9.746414483E0
4.927938780E-1,-3.457227349E-2,-2.860592306E-2,9.755499840E0,9.755603040E0
4.947938780E-1,-4.254975170E-2,-2.646071650E-2,9.756467819E0,9.756596484E0
4.967938780E-1,-4.358404875E-2,-1.598368958E-2,9.758661270E0,9.758771687E0
4.987954410E-1,-4.270298034E-2,-6.732495502E-3,9.753614426E0,9.753710229E0
5.009704410E-1,-3.425623849E-2,-1.354160532E-2,9.750654221E0,9.750723798E0
5.027938780E-1,-3.421793133E-2,-2.226607502E-2,9.751172066E0,9.751257524E0
5.047954410E-1,-4.198472202E-2,-2.834734693E-2,9.747590065E0,9.747721701E0
5.067938780E-1,-4.771165177E-2,-2.494758181E-2,9.745080948E0,9.745229677E0
5.087938780E-1,-5.210740492E-2,-2.450704761E-2,9.750760078E0,9.750930104E0
5.107938780E-1,-4.073973373E-2,-2.301306650E-2,9.756496429E0,9.756608627E0
5.127938780E-1,-3.806780651E-2,-1.680729724E-2,9.758737564E0,9.758826286E0
5.147938780E-1,-3.038720787E-2,-1.864604466E-2,9.758201599E0,9.758266727E0
5.167938780E-1,-3.388274461E-2,-1.738190465E-2,9.761543274E0,9.761617553E0
5.187938780E-1,-3.782838956E-2,-1.406832878E-2,9.756180763E0,9.756264244E0
5.207938780E-1,-4.237736762E-2,-2.130839601E-2,9.747934341E0,9.748049744E0
5.227938780E-1,-4.946420714E-2,-2.666183002E-2,9.751267433E0,9.751429337E0
5.247938780E-1,-4.888959974E-2,-2.822284959E-2,9.751640320E0,9.751803713E0
5.267938780E-1,-4.454172775E-2,-2.686294354E-2,9.759178162E0,9.759316778E0
5.287938780E-1,-3.204399347E-2,-2.768654749E-2,9.761936188E0,9.762028042E0
5.307938780E-1,-2.837607823E-2,-2.702574991E-2,9.761322975E0,9.761401632E0
5.327938780E-1,-3.519476205E-2,-2.536896057E-2,9.765451431E0,9.765547804E0
5.347938780E-1,-3.429454565E-2,-1.724782959E-2,9.766407967E0,9.766483409E0
5.367938780E-1,-3.081816435E-2,-1.686475798E-2,9.767778397E0,9.767841572E0
5.387938780E-1,-3.390189633E-2,-2.050394192E-2,9.762701988E0,9.762782383E0
5.407938780E-1,-3.107673861E-2,-2.085828595E-2,9.762586594E0,9.762658338E0
5.427938780E-1,-3.168007731E-2,-2.749501169E-2,9.759034157E0,9.759124309E0
5.447938780E-1,-2.329079434E-2,-3.246537223E-2,9.760719299E0,9.760801079E0
5.467938780E-1,-2.310883440E-2,-3.147896379E-2,9.757128716E0,9.757206860E0
5.487938780E-1,-2.491885237E-2,-3.569275886E-2,9.756917953E0,9.757015060E0
5.507938780E-1,-2.503377385E-2,-3.688985854E-2,9.755835533E0,9.755937397E0
5.527938780E-1,-2.303222008E-2,-2.261084132E-2,9.754322052E0,9.754375450E0
5.547938780E-1,-2.068590373E-2,-2.063801885E-2,9.752703667E0,9.752747441E0
5.567938780E-1,-2.413355187E-2,-2.286941558E-2,9.757358551E0,9.757415197E0
5.587938780E-1,-1.784159057E-2,-2.871126682E-2,9.756314278E0,9.756372837E0
5.607938780E-1,-1.578257792E-2,-3.000413440E-2,9.759972572E0,9.760031452E0
5.627938780E-1,-1.927811280E-2,-3.200568631E-2,9.761620522E0,9.761692026E0
5.647954410E-1,-2.188300341E-2,-4.323928431E-2,9.757281303E0,9.757401649E0
5.667938780E-1,-1.555273402E-2,-4.233906046E-2,9.757406235E0,9.757510487E0
5.687938780E-1,-1.780328341E-2,-3.117250651E-2,9.755423546E0,9.755489595E0
5.707938780E-1,-2.232353576E-2,-1.832043007E-2,9.756745338E0,9.756788077E0
5.727938780E-1,-2.503377385E-2,-1.312980149E-2,9.764158249E0,9.764199168E0
5.747938780E-1,-3.016694076E-2,-1.521754637E-2,9.765718460E0,9.765776910E0
5.767938780E-1,-2.541684546E-2,-1.657745242E-2,9.764445305E0,9.764492457E0
5.787938780E-1,-1.436521020E-2,-1.139640063E-2,9.761026382E0,9.761043606E0
5.809704410E-1,-1.055364124E-2,-1.859815791E-2,9.760538101E0,9.760561526E0
5.827938780E-1,-8.609549142E-3,-2.338656224E-2,9.759235382E0,9.759267201E0
5.847938780E-1,-5.401318893E-3,-2.698744275E-2,9.759244919E0,9.759283728E0
5.867938780E-1,-1.249773335E-2,-2.764824033E-2,9.765306473E0,9.765353610E0
5.887938780E-1,-9.107543156E-3,-3.350924700E-2,9.765182495E0,9.765244236E0
5.907938780E-1,-1.803312637E-2,-3.649721295E-2,9.768533707E0,9.768618532E0
5.927938780E-1,-2.192131057E-2,-3.476380929E-2,9.765182495E0,9.765268979E0
5.947938780E-1,-2.392286249E-2,-3.130657971E-2,9.766331673E0,9.766411150E0
5.967938780E-1,-2.279280126E-2,-2.700659633E-2,9.766236305E0,9.766300243E0
5.987938780E-1,-2.932418324E-2,-2.487096749E-2,9.766101837E0,9.766177531E0
6.007938780E-1,-3.131615743E-2,-2.634579502E-2,9.770996094E0,9.771081796E0
6.027938780E-1,-2.765781805E-2,-1.992933452E-2,9.766543388E0,9.766602884E0
6.047938780E-1,-2.014960162E-2,-1.899080910E-2,9.770536423E0,9.770575656E0
6.067938780E-1,-2.538811415E-2,-2.269703336E-2,9.767433167E0,9.767492533E0
6.087938780E-1,-2.571372688E-2,-2.921883762E-2,9.768659592E0,9.768737132E0
6.107938780E-1,-2.285026200E-2,-3.036805429E-2,9.765881538E0,9.765955487E0
6.127938780E-1,-2.009214088E-2,-2.822284959E-2,9.769042015E0,9.769103445E0
6.147938780E-1,-2.863465250E-2,-3.073197417E-2,9.768420219E0,9.768510530E0
6.167938780E-1,-3.335601836E-2,-2.824200317E-2,9.768591881E0,9.768689655E0
6.187938780E-1,-2.938164398E-2,-2.799300663E-2,9.765499115E0,9.765583436E0
6.207938780E-1,-3.637271002E-2,-2.051351964E-2,9.761227608E0,9.761316929E0
6.227938780E-1,-4.105577245E-2,-1.996764168E-2,9.755558014E0,9.755664839E0
6.247938780E-1,-3.768473491E-2,-1.614649594E-2,9.753297806E0,9.753383974E0
6.267938780E-1,-4.453215003E-2,-1.360864285E-2,9.749390602E0,9.749501804E0
6.287938780E-1,-4.502056912E-2,-1.557188760E-2,9.748404503E0,9.748520897E0
6.307938780E-1,-4.093126953E-2,-1.990060508E-2,9.741642952E0,9.741749268E0
6.327938780E-1,-3.993528336E-2,-2.188300341E-2,9.738358498E0,9.738464967E0
6.347938780E-1,-4.092169553E-2,-2.177765779E-2,9.746575356E0,9.746685591E0
6.367938780E-1,-3.434243053E-2,-2.127008885E-2,9.750711441E0,9.750795118E0
6.387938780E-1,-3.172796220E-2,-2.440170199E-2,9.753317833E0,9.753399964E0
6.407938780E-1,-2.733220719E-2,-3.134488687E-2,9.760078430E0,9.760167033E0
6.427938780E-1,-2.919010818E-2,-3.416046873E-2,9.765642166E0,9.765745538E0
6.447954410E-1,-3.615244851E-2,-4.033751041E-2,9.760470390E0,9.760620695E0
6.467954410E-1,-3.031059355E-2,-4.430230707E-2,9.758498192E0,9.758645827E0
6.487954410E-1,-2.904645540E-2,-5.001008511E-2,9.752741814E0,9.752913287E0
6.507954410E-1,-3.363374621E-2,-5.130295455E-2,9.748997688E0,9.749190692E0
6.527938780E-1,-3.425623849E-2,-4.373727739E-2,9.745989799E0,9.746148142E0
6.547938780E-1,-3.225468472E-2,-3.149811924E-2,9.749295235E0,9.749399472E0
6.567938780E-1,-2.397074737E-2,-2.210326865E-2,9.750357628E0,9.750412146E0
6.587938780E-1,-2.247676440E-2,-1.588792168E-2,9.754916191E0,9.754955024E0
6.609704410E-1,-2.547430620E-2,-1.229662076E-2,9.757846832E0,9.757887832E0
6.627938780E-1,-3.028186224E-2,-6.177040748E-3,9.761370659E0,9.761419584E0
6.647954410E-1,-3.444777429E-2,-6.014234386E-3,9.760729790E0,9.760792429E0
6.667954410E-1,-3.209188208E-2,-1.591665298E-2,9.757099152E0,9.757164910E0
6.687954410E-1,-3.410300985E-2,-2.639367804E-2,9.754868507E0,9.754963826E0
6.707954410E-1,-2.702574991E-2,-2.919010818E-2,9.749103546E0,9.749184705E0
6.727938780E-1,-3.199611232E-2,-2.786850743E-2,9.744218826E0,9.744311209E0
6.747938780E-1,-4.098873213E-2,-2.474647015E-2,9.744429588E0,9.744547217E0
6.767938780E-1,-4.169741645E-2,-2.821327187E-2,9.752427101E0,9.752557051E0
6.787938780E-1,-3.908294812E-2,-3.041593917E-2,9.756975174E0,9.757100858E0
6.807938780E-1,-3.902548552E-2,-3.095223941E-2,9.757521629E0,9.757648763E0
6.827938780E-1,-3.857537732E-2,-3.411258757E-2,9.754015923E0,9.754151852E0
6.847938780E-1,-3.689943627E-2,-3.325067088E-2,9.753039360E0,9.753165842E0
6.867938780E-1,-3.089477867E-2,-3.101927787E-2,9.756160736E0,9.756258965E0
6.887938780E-1,-2.346317656E-2,-2.689167485E-2,9.756832123E0,9.756897394E0
6.907938780E-1,-2.499546669E-2,-2.732262947E-2,9.758631706E0,9.758701967E0
6.927938780E-1,-3.131615743E-2,-2.655648626E-2,9.758276939E0,9.758363325E0
6.947938780E-1,-3.419877589E-2,-2.129881829E-2,9.757262230E0,9.757345408E0
6.967938780E-1,-3.341347724E-2,-2.230438218E-2,9.755931854E0,9.756014570E0
6.987938780E-1,-2.866338380E-2,-2.523488551E-2,9.753317833E0,9.753392596E0
7.007938780E-1,-2.397074737E-2,-2.440170199E-2,9.757300377E0,9.757360334E0
7.029391910E-1,-2.538811415E-2,-2.627875656E-2,9.757913589E0,9.757982002E0
7.047938780E-1,-2.044648118E-2,-2.317587286E-2,9.757664680E0,9.757713625E0
7.067938780E-1,-2.816538885E-2,-2.348233014E-2,9.761610031E0,9.761678908E0
7.087938780E-1,-3.236003220E-2,-1.755428687E-2,9.756017685E0,9.756087146E0
7.107938780E-1,-3.507984057E-2,-1.893334836E-2,9.745885849E0,9.745967374E0
7.127938780E-1,-3.145981207E-2,-1.558146439E-2,9.742581367E0,9.742644621E0
7.147938780E-1,-2.331952564E-2,-1.654872112E-2,9.753700256E0,9.753742172E0
7.167938780E-1,-2.527319267E-2,-2.255337872E-2,9.757818222E0,9.757877015E0
7.187938780E-1,-2.108812891E-2,-2.880703472E-2,9.754331589E0,9.754396921E0
7.207938780E-1,-2.135627903E-2,-3.667916730E-2,9.758276939E0,9.758369243E0
7.227938780E-1,-2.717897855E-2,-3.106716089E-2,9.759341240E0,9.759428534E0
7.247938780E-1,-2.893153392E-2,-2.520615608E-2,9.755471230E0,9.755546694E0
7.267938780E-1,-3.099054657E-2,-2.722686157E-2,9.756975174E0,9.757062379E0
7.287938780E-1,-2.707363293E-2,-3.229299188E-2,9.756697655E0,9.756788659E0
7.307938780E-1,-2.274491638E-2,-2.728432231E-2,9.757837296E0,9.757901949E0
7.327954410E-1,-2.100193873E-2,-2.377921157E-2,9.755710602E0,9.755762188E0
7.347938780E-1,-2.825157903E-2,-2.332910150E-2,9.756257057E0,9.756325854E0
7.367938780E-1,-3.075112775E-2,-2.092532441E-2,9.754963875E0,9.755034787E0
7.387938780E-1,-3.330813348E-2,-1.872265898E-2,9.748988152E0,9.749063029E0
7.409704410E-1,-3.763685375E-2,-2.353021502E-2,9.753288269E0,9.753389271E0
7.427938780E-1,-3.616202250E-2,-2.766739391E-2,9.752589226E0,9.752695514E0
7.447938780E-1,-3.517561033E-2,-2.391328663E-2,9.753996849E0,9.754089588E0
7.467938780E-1,-3.545333818E-2,-2.888364904E-2,9.757799149E0,9.757906304E0
7.487938780E-1,-3.708139434E-2,-3.053086065E-2,9.757722855E0,9.757841076E0
7.507938780E-1,-3.573106602E-2,-3.431369737E-2,9.758019447E0,9.758145196E0
7.527954410E-1,-3.117250651E-2,-3.347093984E-2,9.760547638E0,9.760654805E0
7.547938780E-1,-2.752374299E-2,-3.346136585E-2,9.763698578E0,9.763794710E0
7.567938780E-1,-2.718855441E-2,-3.107673861E-2,9.764569283E0,9.764656587E0
7.587938780E-1,-3.302082792E-2,-2.954444848E-2,9.765306473E0,9.765406994E0
7.607938780E-1,-3.929363936E-2,-2.423889749E-2,9.763305664E0,9.763414823E0
7.627938780E-1,-3.873818368E-2,-2.435381897E-2,9.765804291E0,9.765911488E0
7.647938780E-1,-3.598006442E-2,-3.032974713E-2,9.764426231E0,9.764539625E0
7.667938780E-1,-2.935291268E-2,-3.432327509E-2,9.767280579E0,9.767384992E0
7.687938780E-1,-2.957317978E-2,-2.735136077E-2,9.766647339E0,9.766730411E0
7.707938780E-1,-2.695871145E-2,-2.350148372E-2,9.763506889E0,9.763572393E0
7.727938780E-1,-1.744894311E-2,-2.710236423E-2,9.756975174E0,9.757028418E0
7.747938780E-1,-1.924938150E-2,-2.683421411E-2,9.756141663E0,9.756197556E0
7.767938780E-1,-2.380794100E-2,-2.457408793E-2,9.756687164E0,9.756747159E0
7.787938780E-1,-2.576160990E-2,-2.233311348E-2,9.759705544E0,9.759765096E0
7.807938780E-1,-2.206496149E-2,-1.493024174E-2,9.761390686E0,9.761427042E0
7.827938780E-1,-2.618298866E-2,-1.212423667E-2,9.765766144E0,9.765808769E0
7.847938780E-1,-2.698744275E-2,-1.755428687E-2,9.770938873E0,9.770991912E0
7.867938780E-1,-2.535938472E-2,-1.826296933E-2,9.771924973E0,9.771974944E0
7.887938780E-1,-1.714248396E-2,-7.642291952E-3,9.775947571E0,9.775965588E0
7.907938780E-1,-1.916319132E-2,-5.880159326E-3,9.773734093E0,9.773754648E0
7.927938780E-1,-2.017833106E-2,-2.558922768E-2,9.765288353E0,9.765342728E0
7.948188780E-1,-1.907699928E-2,-3.750277683E-2,9.766044617E0,9.766135256E0
7.967938780E-1,-2.760035731E-2,-3.544376418E-2,9.766676903E0,9.766780215E0
7.987938780E-1,-3.124912083E-2,-2.840480767E-2,9.765881538E0,9.765972843E0
8.007938780E-1,-2.997540496E-2,-2.428678051E-2,9.772153854E0,9.772230008E0
8.027938780E-1,-3.059789911E-2,-2.043690532E-2,9.765910149E0,9.765979466E0
8.047938780E-1,-3.260902688E-2,-1.586876810E-2,9.763803482E0,9.763870831E0
8.067938780E-1,-3.163219243E-2,-2.778231539E-2,9.761907578E0,9.761998361E0
8.087938780E-1,-3.693774343E-2,-2.444000915E-2,9.760307312E0,9.760407806E0
8.107938780E-1,-3.919786960E-2,-2.163400687E-2,9.761695862E0,9.761798533E0
8.127954410E-1,-3.632482886E-2,-2.643198520E-2,9.763429642E0,9.763532993E0
8.147938780E-1,-3.318363428E-2,-3.102885373E-2,9.760442734E0,9.760548463E0
8.167954410E-1,-3.770388663E-2,-3.389231861E-2,9.757761002E0,9.757892705E0
8.187938780E-1,-3.665044159E-2,-3.378697485E-2,9.753537178E0,9.753664557E0
8.209720030E-1,-3.066493571E-2,-2.784935385E-2,9.748883247E0,9.748971253E0
8.230720030E-1,-3.055001423E-2,-3.503195941E-2,9.754159927E0,9.754270676E0
8.252423160E-1,-3.538630158E-2,-3.733039647E-2,9.756697655E0,9.756833240E0
8.271626280E-1,-3.565445170E-2,-3.438073769E-2,9.751803398E0,9.751929183E0
8.287938780E-1,-3.326024860E-2,-3.283886984E-2,9.752445221E0,9.752557225E0
8.307938780E-1,-3.062662855E-2,-2.421974391E-2,9.753259659E0,9.753337816E0
8.327954410E-1,-2.955402620E-2,-2.547430620E-2,9.751775742E0,9.751853798E0
8.347954410E-1,-3.289633244E-2,-2.174892835E-2,9.744784355E0,9.744864151E0
8.367954410E-1,-3.669832274E-2,-2.733220719E-2,9.744908333E0,9.745015764E0
8.387938780E-1,-3.219722211E-2,-2.543599904E-2,9.744524956E0,9.744611345E0
8.407938780E-1,-3.057874553E-2,-2.554134279E-2,9.749753952E0,9.749835360E0
8.427938780E-1,-2.913264744E-2,-1.516966149E-2,9.752377510E0,9.752432821E0
8.447938780E-1,-3.485957533E-2,-1.374271791E-2,9.751592636E0,9.751664627E0
8.467938780E-1,-3.227383643E-2,-1.914403774E-2,9.748165131E0,9.748237354E0
8.487938780E-1,-3.416046873E-2,-2.422931977E-2,9.746661186E0,9.746751165E0
8.507938780E-1,-3.877649084E-2,-2.614468150E-2,9.747656822E0,9.747769011E0
8.527938780E-1,-4.288494214E-2,-2.446874045E-2,9.746967316E0,9.747092371E0
8.547938780E-1,-3.874776140E-2,-2.264914848E-2,9.750826836E0,9.750930128E0
8.567938780E-1,-3.704308718E-2,-1.514093112E-2,9.751172066E0,9.751254181E0
8.587938780E-1,-3.272394836E-2,-1.657745242E-2,9.755701065E0,9.755770033E0
8.607938780E-1,-3.508942202E-2,-2.531149983E-2,9.766543388E0,9.766639222E0
8.627938780E-1,-3.590345010E-2,-2.127008885E-2,9.771522522E0,9.771611631E0
8.647938780E-1,-3.051170707E-2,-1.922065206E-2,9.767165184E0,9.767231754E0
8.667938780E-1,-2.957317978E-2,-2.922841534E-2,9.760040283E0,9.760128852E0
8.687938780E-1,-2.848142385E-2,-2.921883762E-2,9.756908417E0,9.756993737E0
8.707954410E-1,-2.842396125E-2,-3.059789911E-2,9.757818222E0,9.757907594E0
8.727938780E-1,-2.805046737E-2,-3.001371212E-2,9.751133919E0,9.751220455E0
8.747954410E-1,-3.205357492E-2,-2.495715953E-2,9.750636101E0,9.750720725E0
8.767938780E-1,-3.414131701E-2,-2.005383372E-2,9.748988152E0,9.749068559E0
8.787938780E-1,-2.853888460E-2,-2.178723551E-2,9.743749619E0,9.743815771E0
8.807938780E-1,-3.334644437E-2,-1.767878607E-2,9.747217178E0,9.747290251E0
8.827938780E-1,-3.291548416E-2,-2.005383372E-2,9.750539780E0,9.750615959E0
8.847954410E-1,-2.795469947E-2,-2.531149983E-2,9.751889229E0,9.751962145E0
8.867938780E-1,-2.116474323E-2,-2.919968404E-2,9.758296967E0,9.758363605E0
8.887938780E-1,-1.959414594E-2,-2.760035731E-2,9.761648178E0,9.761706862E0
8.907938780E-1,-1.844492927E-2,-2.245761082E-2,9.769712448E0,9.769755671E0
8.927938780E-1,-1.448013168E-2,-1.654872112E-2,9.776675224E0,9.776699953E0
8.947938780E-1,-1.744894311E-2,-1.712333038E-2,9.773514748E0,9.773545324E0
8.967938780E-1,-2.964021638E-2,-2.176808193E-2,9.773188591E0,9.773257780E0
8.987938780E-1,-3.745489195E-2,-1.903869212E-2,9.769406319E0,9.769496669E0
9.009704410E-1,-2.925714478E-2,-1.899080910E-2,9.762290001E0,9.762352314E0
9.027938780E-1,-2.617341280E-2,-2.530192398E-2,9.762740135E0,9.762808007E0
9.047938780E-1,-2.254380286E-2,-2.349190786E-2,9.761831284E0,9.761885581E0
9.067938780E-1,-2.950614132E-2,-1.765963249E-2,9.763602257E0,9.763662812E0
9.090423160E-1,-3.100970015E-2,-1.338837668E-2,9.756956100E0,9.757014564E0
9.106438780E-1,-3.322194144E-2,-1.832043007E-2,9.745282173E0,9.745356021E0
9.127938780E-1,-3.326982632E-2,-2.168188989E-2,9.743309975E0,9.743390901E0
9.147938780E-1,-2.053267322E-2,-2.307052724E-2,9.751305580E0,9.751354488E0
9.167938780E-1,-1.687433384E-2,-2.639367804E-2,9.749831200E0,9.749881527E0
9.187938780E-1,-1.365652680E-2,-2.135627903E-2,9.752570152E0,9.752603097E0
9.207938780E-1,-1.063983236E-2,-1.491108816E-2,9.752885818E0,9.752903021E0
9.227938780E-1,-1.704671606E-2,-1.425986551E-2,9.754982948E0,9.755008265E0
9.249391910E-1,-2.697786503E-2,-1.511220075E-2,9.753911018E0,9.753960034E0
9.267938780E-1,-4.076846689E-2,-2.119347453E-2,9.756649017E0,9.756757211E0
9.287938780E-1,-3.513730317E-2,-2.179681137E-2,9.754954338E0,9.755041972E0
9.307938780E-1,-2.920926176E-2,-2.217988484E-2,9.755098343E0,9.755167288E0
9.327938780E-1,-2.166273631E-2,-2.812708169E-2,9.756486893E0,9.756551486E0
9.347938780E-1,-1.998679526E-2,-2.461239509E-2,9.757425308E0,9.757476820E0
9.367938780E-1,-2.215115353E-2,-2.610637434E-2,9.762817383E0,9.762877417E0
9.387938780E-1,-3.175669163E-2,-2.988921292E-2,9.766455650E0,9.766553016E0
9.407938780E-1,-3.508942202E-2,-3.385401145E-2,9.763047218E0,9.763168971E0
9.427938780E-1,-2.784935385E-2,-3.244622052E-2,9.759416580E0,9.759510251E0
9.447938780E-1,-2.942952700E-2,-3.338475153E-2,9.756917953E0,9.757019452E0
9.467938780E-1,-2.536896057E-2,-3.340390325E-2,9.752904892E0,9.752995091E0
9.487938780E-1,-2.169146761E-2,-3.528095782E-2,9.754656792E0,9.754744712E0
9.507938780E-1,-1.977610588E-2,-3.890099004E-2,9.761955261E0,9.762052802E0
9.527938780E-1,-1.407790557E-2,-3.874776140E-2,9.753001213E0,9.753088344E0
9.547954410E-1,-1.196143124E-2,-3.748362511E-2,9.748117447E0,9.748196852E0
9.567954410E-1,-1.156878285E-2,-3.525222465E-2,9.753949165E0,9.754019729E0
9.587938780E-1,-8.791509084E-3,-2.858676948E-2,9.759140015E0,9.759185843E0
9.607938780E-1,-1.830127649E-2,-3.236003220E-2,9.765240669E0,9.765311436E0
9.627938780E-1,-2.242888138E-2,-3.017651662E-2,9.766916275E0,9.766988645E0
9.647938780E-1,-2.143289335E-2,-3.066493571E-2,9.767318726E0,9.767390378E0
9.667938780E-1,-2.160527557E-2,-2.539769188E-2,9.767384529E0,9.767441444E0
9.687938780E-1,-2.027409896E-2,-2.525403909E-2,9.760519028E0,9.760572754E0
9.707938780E-1,-2.246718854E-2,-2.427720465E-2,9.751449585E0,9.751505687E0
9.727938780E-1,-2.583822422E-2,-1.830127649E-2,9.748748779E0,9.748800199E0
9.747938780E-1,-3.000413440E-2,-1.937388070E-2,9.742188454E0,9.742253921E0
9.767938780E-1,-3.574064374E-2,-2.210326865E-2,9.749783516E0,9.749874079E0
9.787938780E-1,-3.557783738E-2,-1.401086804E-2,9.759292603E0,9.759367510E0
9.809704410E-1,-3.891056404E-2,-1.108994242E-2,9.762931824E0,9.763015662E0
9.827938780E-1,-3.822103515E-2,-1.481532026E-2,9.760259628E0,9.760345709E0
9.847938780E-1,-3.742616251E-2,-1.425028872E-2,9.753614426E0,9.753696640E0
9.867938780E-1,-3.732081503E-2,-1.792778261E-2,9.750606537E0,9.750694441E0
9.887938780E-1,-3.449565917E-2,-1.568681002E-2,9.748902321E0,9.748975971E0
9.907938780E-1,-2.828988619E-2,-2.036986686E-2,9.752570152E0,9.752632456E0
9.927938780E-1,-3.448608145E-2,-2.219903842E-2,9.756237984E0,9.756324189E0
9.947938780E-1,-3.758896515E-2,-2.960190922E-2,9.753345490E0,9.753462844E0
9.967954410E-1,-3.620032966E-2,-2.654690854E-2,9.757826805E0,9.757930065E0
9.987938780E-1,-3.153642640E-2,-2.256295830E-2,9.762491226E0,9.762568237E0
1.000793878E0,-2.861549892E-2,-3.278141096E-2,9.758163452E0,9.758260471E0
1.002793878E0,-3.422750905E-2,-3.077028133E-2,9.750932693E0,9.751041315E0
1.004793878E0,-3.170880675E-2,-3.530010954E-2,9.751056671E0,9.751172122E0
1.006793878E0,-3.152684867E-2,-2.886449546E-2,9.749706268E0,9.749799968E0
1.008793878E0,-3.730166331E-2,-1.670195162E-2,9.748068810E0,9.748154486E0
1.010793878E0,-3.914998472E-2,-1.683602668E-2,9.752666473E0,9.752759585E0
1.012793878E0,-4.373727739E-2,-1.342668384E-2,9.758775711E0,9.758882959E0
1.014793878E0,-4.121857882E-2,-1.616564952E-2,9.760538101E0,9.760638520E0
1.016793878E0,-3.993528336E-2,-1.830127649E-2,9.757837296E0,9.757936178E0
1.018793878E0,-4.086423665E-2,-2.392286249E-2,9.756447792E0,9.756562699E0
1.020793878E0,-3.389231861E-2,-2.084870823E-2,9.752819061E0,9.752900235E0
1.022793878E0,-2.841438539E-2,-1.674025878E-2,9.754505157E0,9.754560907E0
1.024793878E0,-2.491885237E-2,-1.508347038E-2,9.755069733E0,9.755113221E0
1.026793878E0,-2.217988484E-2,-1.337879989E-2,9.751899719E0,9.751934120E0
1.028793878E0,-2.370259725E-2,-8.944737725E-3,9.748040199E0,9.748073120E0
1.030793878E0,-2.817496471E-2,-1.171243470E-2,9.752943039E0,9.752990769E0
1.032793878E0,-3.122996725E-2,-2.236184292E-2,9.763535500E0,9.763611054E0
1.034795441E0,-2.855803818E-2,-2.018790878E-2,9.763621330E0,9.763683966E0
1.036795441E0,-3.253241256E-2,-1.490151137E-2,9.756525040E0,9.756590658E0
1.038795441E0,-3.736870363E-2,-1.218169741E-2,9.752377510E0,9.752456712E0
1.040795441E0,-3.705266491E-2,-8.054094389E-3,9.757626534E0,9.757700207E0
1.042793878E0,-3.050213121E-2,-1.376187149E-2,9.759522438E0,9.759579806E0
1.044793878E0,-3.502238169E-2,-2.471773885E-2,9.759273529E0,9.759367672E0
1.046793878E0,-3.742616251E-2,-3.014778718E-2,9.764377594E0,9.764495860E0
1.048793878E0,-2.991794422E-2,-3.248452768E-2,9.769434929E0,9.769534746E0
1.050793878E0,-2.460281737E-2,-3.267606348E-2,9.772345543E0,9.772431142E0
1.052795441E0,-2.862507664E-2,-2.553176694E-2,9.767577171E0,9.767652485E0
1.054795441E0,-2.968810126E-2,-1.760217175E-2,9.768754959E0,9.768815930E0
1.056795441E0,-3.473507613E-2,-2.574245632E-2,9.765258789E0,9.765354495E0
1.058795441E0,-3.550122306E-2,-2.859634534E-2,9.756103516E0,9.756210017E0
1.060970441E0,-3.717716038E-2,-2.525403909E-2,9.759522438E0,9.759625921E0
1.062793878E0,-3.588429466E-2,-2.647029236E-2,9.760566711E0,9.760668568E0
1.064793878E0,-3.305913508E-2,-3.067451343E-2,9.759705544E0,9.759809738E0
1.066793878E0,-2.828988619E-2,-3.479253873E-2,9.759531975E0,9.759634993E0
1.068793878E0,-2.695871145E-2,-2.621171996E-2,9.756898880E0,9.756971332E0
1.070793878E0,-2.322375588E-2,-2.097320743E-2,9.757338524E0,9.757388702E0
1.072793878E0,-2.631706372E-2,-2.187342569E-2,9.761284828E0,9.761344812E0
1.074793878E0,-3.722504899E-2,-2.575203404E-2,9.758316040E0,9.758421020E0
1.076793878E0,-3.734954819E-2,-2.951571904E-2,9.752416611E0,9.752532795E0
1.078793878E0,-2.948698774E-2,-3.289633244E-2,9.751765251E0,9.751865317E0
1.080793878E0,-2.824200317E-2,-3.212060779E-2,9.760422707E0,9.760516418E0
1.082793878E0,-2.345360070E-2,-2.251507156E-2,9.756133080E0,9.756187250E0
1.084793878E0,-3.145981207E-2,-1.992933452E-2,9.753901482E0,9.753972576E0
1.086793878E0,-3.762727231E-2,-2.207453921E-2,9.755290031E0,9.755387573E0
1.088793878E0,-3.566402942E-2,-2.665225416E-2,9.758938789E0,9.759040350E0
1.090793878E0,-2.806004323E-2,-2.703532577E-2,9.758238792E0,9.758316587E0
1.092793878E0,-2.561795898E-2,-2.150950767E-2,9.752819061E0,9.752876426E0
1.094793878E0,-2.346317656E-2,-2.035071328E-2,9.750693321E0,9.750742788E0
1.096793878E0,-1.654872112E-2,-2.149993181E-2,9.754245758E0,9.754283491E0
1.098793878E0,-2.317587286E-2,-2.391328663E-2,9.752340317E0,9.752397173E0
1.100793878E0,-2.800258249E-2,-2.464112453E-2,9.755232811E0,9.755304123E0
1.102793878E0,-2.776316181E-2,-2.978386916E-2,9.760231018E0,9.760315948E0
1.104793878E0,-3.442861885E-2,-3.383485973E-2,9.766532898E0,9.766652189E0
1.106795441E0,-4.290409386E-2,-3.361459449E-2,9.765872002E0,9.766024097E0
1.108793878E0,-4.491522163E-2,-2.656606212E-2,9.766322136E0,9.766461549E0
1.110795441E0,-4.055777565E-2,-1.850239001E-2,9.762213707E0,9.762315490E0
1.112795441E0,-3.646847978E-2,-1.813847199E-2,9.757951736E0,9.758036741E0
1.114795441E0,-3.382528201E-2,-2.933375910E-2,9.762473106E0,9.762575775E0
1.116793878E0,-3.542460874E-2,-2.730347589E-2,9.768783569E0,9.768885955E0
1.118793878E0,-2.649902552E-2,-2.817496471E-2,9.766274452E0,9.766351043E0
1.120793878E0,-2.145204693E-2,-2.279280126E-2,9.760499954E0,9.760550141E0
1.122795441E0,-2.384624816E-2,-2.122220397E-2,9.765910149E0,9.765962321E0
1.124793878E0,-3.491703793E-2,-2.414312959E-2,9.762233734E0,9.762326033E0
1.126793878E0,-3.719631582E-2,-2.512954175E-2,9.757099152E0,9.757202412E0
1.128795441E0,-3.310701996E-2,-2.456451021E-2,9.758622169E0,9.758709245E0
1.130793878E0,-3.245579824E-2,-3.027228639E-2,9.757683754E0,9.757784689E0
1.132793878E0,-3.068408929E-2,-3.102885373E-2,9.755337715E0,9.755435318E0
1.134793878E0,-3.341347724E-2,-2.666183002E-2,9.757512093E0,9.757605728E0
1.136793878E0,-2.684378996E-2,-2.678632922E-2,9.760528564E0,9.760602233E0
1.138793878E0,-1.855985075E-2,-1.917276718E-2,9.762500763E0,9.762537232E0
1.140970441E0,-2.662352286E-2,-1.796608977E-2,9.760106087E0,9.760158934E0
1.142793878E0,-3.283886984E-2,-1.702756248E-2,9.761064529E0,9.761134620E0
1.144795441E0,-3.903506324E-2,-1.737232693E-2,9.760996819E0,9.761090330E0
1.146939191E0,-4.050031677E-2,-1.689348742E-2,9.752981186E0,9.753079907E0
1.148793878E0,-3.507026657E-2,-2.467943169E-2,9.746326447E0,9.746420789E0
1.150793878E0,-3.934152052E-2,-2.975513786E-2,9.748930931E0,9.749055720E0
1.152793878E0,-4.674439132E-2,-3.447650373E-2,9.753355026E0,9.753527974E0
1.154795441E0,-4.379473999E-2,-2.859634534E-2,9.754897118E0,9.755037340E0
1.156795441E0,-4.047158360E-2,-2.893153392E-2,9.754810333E0,9.754937192E0
1.158793878E0,-3.863283992E-2,-2.958275564E-2,9.751468658E0,9.751590057E0
1.160793878E0,-3.887225688E-2,-3.249410540E-2,9.750558853E0,9.750690482E0
1.162793878E0,-3.519476205E-2,-3.054043837E-2,9.755232811E0,9.755344104E0
1.164793878E0,-2.999455854E-2,-2.544557489E-2,9.752522469E0,9.752601789E0
1.166795441E0,-3.062662855E-2,-2.266830206E-2,9.747264862E0,9.747339336E0
1.168793878E0,-3.122038953E-2,-2.576160990E-2,9.754858017E0,9.754941994E0
1.170970441E0,-3.495534509E-2,-2.579034120E-2,9.758689880E0,9.758786564E0
1.172793878E0,-3.767516091E-2,-2.282153070E-2,9.758871078E0,9.758970487E0
1.174793878E0,-4.223372042E-2,-3.100012429E-2,9.751190186E0,9.751330921E0
1.176793878E0,-3.924575448E-2,-2.330037206E-2,9.752971649E0,9.753078444E0
1.178793878E0,-4.282747954E-2,-2.285983786E-2,9.757559776E0,9.757680542E0
1.180793878E0,-4.186022282E-2,-2.512954175E-2,9.754705429E0,9.754827614E0
1.182793878E0,-4.025131837E-2,-2.326206490E-2,9.755970001E0,9.756080768E0
1.184793878E0,-4.103661701E-2,-2.238099650E-2,9.755710602E0,9.755822582E0
1.186793878E0,-4.108449817E-2,-3.214934096E-2,9.757875443E0,9.758014894E0
1.188795441E0,-3.431369737E-2,-3.181415051E-2,9.753968239E0,9.754080478E0
1.190793878E0,-2.408566885E-2,-3.920744732E-2,9.749485970E0,9.749594556E0
1.192793878E0,-2.165316045E-2,-3.756981343E-2,9.747474670E0,9.747571123E0
1.194793878E0,-2.899857052E-2,-3.405512497E-2,9.748614311E0,9.748716924E0
1.196795441E0,-2.477519959E-2,-4.227202758E-2,9.750387192E0,9.750510301E0
1.198795441E0,-2.421974391E-2,-3.810611367E-2,9.749390602E0,9.749495155E0
1.200795441E0,-2.260126546E-2,-3.164177015E-2,9.743960381E0,9.744037968E0
1.202793878E0,-2.485181391E-2,-3.114377521E-2,9.748653412E0,9.748734835E0
1.204793878E0,-3.342305869E-2,-3.142150491E-2,9.750290871E0,9.750398785E0
1.206793878E0,-3.527137637E-2,-2.670013718E-2,9.754111290E0,9.754211604E0
1.208795441E0,-3.914998472E-2,-2.641283162E-2,9.752790451E0,9.752904795E0
1.210793878E0,-3.586514294E-2,-2.197877131E-2,9.753431320E0,9.753522025E0
1.212793878E0,-3.484042361E-2,-8.130708709E-3,9.750932693E0,9.750998326E0
1.214793878E0,-3.253241256E-2,-8.293514140E-3,9.758306503E0,9.758364256E0
1.216793878E0,-2.711194009E-2,-1.537077501E-2,9.759866714E0,9.759916475E0
1.218793878E0,-2.189257927E-2,-1.576342434E-2,9.752838135E0,9.752875445E0
1.220970441E0,-1.991975866E-2,-1.575384662E-2,9.745818138E0,9.745851228E0
1.222793878E0,-3.279098496E-2,-2.161485329E-2,9.748576164E0,9.748655276E0
1.224793878E0,-2.915180102E-2,-2.262041904E-2,9.747330666E0,9.747400506E0
1.226793878E0,-2.106897533E-2,-2.008256316E-2,9.745607376E0,9.745650842E0
1.228793878E0,-1.968033798E-2,-1.418325026E-2,9.745166779E0,9.745196972E0
1.230793878E0,-1.864604466E-2,-1.964203082E-2,9.752321243E0,9.752358849E0
1.232793878E0,-2.088701539E-2,-1.769793965E-2,9.755845070E0,9.755883482E0
1.234793878E0,-1.762132533E-2,-2.487096749E-2,9.756860733E0,9.756908344E0
1.236795441E0,-1.610818878E-2,-2.880703472E-2,9.757415771E0,9.757471591E0
1.238793878E0,-2.368344367E-2,-1.998679526E-2,9.755059242E0,9.755108467E0
1.240793878E0,-2.598187700E-2,-1.449928526E-2,9.750070572E0,9.750115971E0
1.242793878E0,-2.341529354E-2,-1.417367347E-2,9.757713318E0,9.757751706E0
1.244793878E0,-2.588610910E-2,-1.349372137E-2,9.761007309E0,9.761050961E0
1.246793878E0,-3.251326084E-2,-2.126051113E-2,9.761466980E0,9.761544280E0
1.248793878E0,-3.245579824E-2,-2.637452446E-2,9.757569313E0,9.757658935E0
1.250793878E0,-2.879745886E-2,-2.601060644E-2,9.764789581E0,9.764866687E0
1.252793878E0,-2.871126682E-2,-2.564668842E-2,9.768821716E0,9.768897574E0
1.254793878E0,-3.742616251E-2,-2.256295830E-2,9.763995171E0,9.764092968E0
1.256793878E0,-3.666001558E-2,-2.373132668E-2,9.759254456E0,9.759352164E0
1.258793878E0,-3.932236880E-2,-2.200750075E-2,9.750396729E0,9.750500856E0
1.260793878E0,-4.525998980E-2,-2.165316045E-2,9.750118256E0,9.750247347E0
1.262793878E0,-4.117069393E-2,-2.331952564E-2,9.755395889E0,9.755510637E0
1.264793878E0,-4.068227485E-2,-2.430593409E-2,9.757415771E0,9.757530854E0
1.266793878E0,-3.806780651E-2,-2.748543583E-2,9.757425308E0,9.757538278E0
1.268793878E0,-3.594175726E-2,-2.647987194E-2,9.754590988E0,9.754693144E0
1.270793878E0,-2.489012107E-2,-2.895068750E-2,9.759446144E0,9.759520823E0
1.272793878E0,-2.140416391E-2,-3.200568631E-2,9.758957863E0,9.759033819E0
1.274793878E0,-2.809835039E-2,-3.228341788E-2,9.754179001E0,9.754272895E0
1.276793878E0,-2.840480767E-2,-4.418738559E-2,9.756879807E0,9.757021211E0
1.278793878E0,-2.555092052E-2,-4.182191566E-2,9.759350777E0,9.759473833E0
1.280793878E0,-2.641283162E-2,-3.971501812E-2,9.760251045E0,9.760367585E0
1.282793878E0,-2.874957398E-2,-3.585556522E-2,9.758766174E0,9.758874392E0
1.284793878E0,-3.755065799E-2,-2.893153392E-2,9.752752304E0,9.752867506E0
1.286793878E0,-4.076846689E-2,-1.851196587E-2,9.750741005E0,9.750843805E0
1.288793878E0,-2.996582724E-2,-1.302445680E-2,9.749390602E0,9.749445353E0
1.290793878E0,-2.299391292E-2,-1.573469304E-2,9.751237869E0,9.751277674E0
1.292793878E0,-2.216073126E-2,-1.737232693E-2,9.756266594E0,9.756307229E0
1.294793878E0,-2.321418002E-2,-1.949837804E-2,9.761792183E0,9.761839258E0
1.296793878E0,-2.875915170E-2,-1.797566563E-2,9.758163452E0,9.758222388E0
1.298793878E0,-3.580768034E-2,-1.535162143E-2,9.759311676E0,9.759389441E0
1.300970441E0,-3.882437572E-2,-2.252464928E-2,9.760739326E0,9.760842530E0
1.302793878E0,-3.074155003E-2,-2.234268934E-2,9.752311707E0,9.752385752E0
1.304793878E0,-2.560838126E-2,-2.259168774E-2,9.753652573E0,9.753712354E0
1.306793878E0,-2.059013397E-2,-2.715024725E-2,9.753028870E0,9.753088394E0
1.308793878E0,-2.013044804E-2,-2.851015516E-2,9.756228447E0,9.756290872E0
1.310795441E0,-3.225468472E-2,-2.545515262E-2,9.756055832E0,9.756142359E0
1.312793878E0,-3.433285281E-2,-2.638410218E-2,9.755547523E0,9.755643615E0
1.314795441E0,-3.176626936E-2,-2.607764490E-2,9.760384560E0,9.760471090E0
1.316795441E0,-2.863465250E-2,-2.207453921E-2,9.764176369E0,9.764243309E0
1.318793878E0,-3.583640978E-2,-2.329079434E-2,9.760729790E0,9.760823364E0
1.320942316E0,-3.470634669E-2,-2.012087032E-2,9.758420944E0,9.758503405E0
1.323078253E0,-3.825934231E-2,-1.849281229E-2,9.754369736E0,9.754462297E0
1.324839191E0,-4.539406672E-2,-2.268745564E-2,9.753652573E0,9.753784591E0
1.326795441E0,-3.545333818E-2,-2.366429009E-2,9.754849434E0,9.754942563E0
1.328793878E0,-3.262818232E-2,-2.481350675E-2,9.754810333E0,9.754896460E0
1.330793878E0,-3.406470269E-2,-2.757162601E-2,9.756707191E0,9.756805615E0
1.332793878E0,-4.338293523E-2,-2.482308447E-2,9.754523277E0,9.754651333E0
1.334793878E0,-4.721365869E-2,-2.240015008E-2,9.753326416E0,9.753466413E0
1.336793878E0,-5.160941184E-2,-1.690306515E-2,9.755356789E0,9.755507948E0
1.338793878E0,-5.737464875E-2,-1.783201471E-2,9.755002975E0,9.755187998E0
1.340795441E0,-4.603571072E-2,-2.197877131E-2,9.750251770E0,9.750385220E0
1.342793878E0,-3.205357492E-2,-2.718855441E-2,9.748739243E0,9.748829851E0
1.344793878E0,-3.694731742E-2,-3.112462163E-2,9.748767853E0,9.748887552E0
1.346793878E0,-3.378697485E-2,-3.300167620E-2,9.746852875E0,9.746967304E0
1.348793878E0,-3.330813348E-2,-3.367205337E-2,9.750674248E0,9.750789277E0
1.350793878E0,-3.151727095E-2,-3.026270866E-2,9.752100945E0,9.752198829E0
1.352793878E0,-3.242706507E-2,-3.176626936E-2,9.757166862E0,9.757272457E0
1.354793878E0,-2.943910472E-2,-3.258029372E-2,9.763199806E0,9.763298551E0
1.356793878E0,-2.959233336E-2,-3.050213121E-2,9.758133888E0,9.758226430E0
1.358793878E0,-2.614468150E-2,-2.768654749E-2,9.755615234E0,9.755689555E0
1.360793878E0,-3.190992028E-2,-2.951571904E-2,9.753365517E0,9.753462376E0
1.362793878E0,-3.862326220E-2,-2.911349386E-2,9.752933502E0,9.753053432E0
1.364793878E0,-3.749319911E-2,-3.297294676E-2,9.751420975E0,9.751548799E0
1.366795441E0,-3.675578162E-2,-3.610455990E-2,9.751267433E0,9.751403544E0
1.368939191E0,-4.239652306E-2,-3.520434350E-2,9.757559776E0,9.757715388E0
1.370795441E0,-3.586514294E-2,-3.054043837E-2,9.752100945E0,9.752214716E0
1.372793878E0,-2.965936996E-2,-3.299209848E-2,9.749524117E0,9.749625052E0
1.374793878E0,-2.758120373E-2,-3.478296101E-2,9.752205849E0,9.752306881E0
1.376793878E0,-2.527319267E-2,-2.858676948E-2,9.756467819E0,9.756542433E0
1.378793878E0,-3.649721295E-2,-2.784935385E-2,9.758631706E0,9.758739694E0
1.380970441E0,-4.152503610E-2,-2.483266033E-2,9.754973412E0,9.755093400E0
1.382795441E0,-4.867890850E-2,-2.674802206E-2,9.754407883E0,9.754566020E0
1.384795441E0,-5.136999115E-2,-2.960190922E-2,9.760241508E0,9.760421582E0
1.386795441E0,-5.192544684E-2,-2.723643929E-2,9.764589310E0,9.764765356E0
1.388795441E0,-4.982812330E-2,-3.645890579E-2,9.758717537E0,9.758912852E0
1.390793878E0,-5.278735608E-2,-3.217807040E-2,9.756151199E0,9.756347070E0
1.392793878E0,-5.815037340E-2,-3.630567715E-2,9.752741814E0,9.752982746E0
1.394793878E0,-6.142564118E-2,-3.631525114E-2,9.758201599E0,9.758462500E0
1.396795441E0,-5.354392529E-2,-2.592441626E-2,9.758756638E0,9.758937962E0
1.398793878E0,-4.390008003E-2,-2.371217310E-2,9.753403664E0,9.753531284E0
1.400795441E0,-3.262818232E-2,-2.165316045E-2,9.758258820E0,9.758337392E0
1.402795441E0,-3.633440286E-2,-2.628833428E-2,9.762175560E0,9.762278573E0
1.404795441E0,-4.121857882E-2,-3.319321200E-2,9.759436607E0,9.759580096E0
1.406795441E0,-4.021301121E-2,-2.988921292E-2,9.757924080E0,9.758052716E0
1.408793878E0,-3.529053181E-2,-2.502419613E-2,9.758276939E0,9.758372839E0
1.410793878E0,-3.827849403E-2,-2.326206490E-2,9.768160820E0,9.768263519E0
1.412793878E0,-4.311478510E-2,-2.167231403E-2,9.764119148E0,9.764238389E0
1.414793878E0,-4.347870126E-2,-1.773624681E-2,9.758412361E0,9.758525338E0
1.416795441E0,-3.375824541E-2,-2.427720465E-2,9.759742737E0,9.759831315E0
1.418795441E0,-2.855803818E-2,-2.383667231E-2,9.762290001E0,9.762360873E0
1.420793878E0,-3.005201928E-2,-2.497631311E-2,9.757799149E0,9.757877390E0
1.422793878E0,-3.311659768E-2,-2.245761082E-2,9.763535500E0,9.763617491E0
1.424793878E0,-2.695871145E-2,-1.352245174E-2,9.768314362E0,9.768360922E0
1.426793878E0,-2.807919681E-2,-1.429817267E-2,9.760853767E0,9.760904628E0
1.428793878E0,-3.442861885E-2,-1.324472390E-2,9.754839897E0,9.754909644E0
1.430793878E0,-2.207453921E-2,-7.536946796E-3,9.754648209E0,9.754676097E0
1.432793878E0,-1.677856594E-2,-8.178592660E-3,9.756553650E0,9.756571505E0
1.434793878E0,-1.778412983E-2,-1.668279804E-2,9.759254456E0,9.759284918E0
1.436793878E0,-2.612552792E-2,-2.251507156E-2,9.756697655E0,9.756758611E0
1.438793878E0,-2.664267644E-2,-2.569457330E-2,9.764933586E0,9.765003737E0
1.440793878E0,-2.818454243E-2,-2.865380608E-2,9.761083603E0,9.761166350E0
1.442793878E0,-2.800258249E-2,-2.562753484E-2,9.760671616E0,9.760745428E0
1.444793878E0,-3.029143997E-2,-2.421974391E-2,9.761887550E0,9.761964593E0
1.446793878E0,-2.728432231E-2,-1.677856594E-2,9.763421059E0,9.763473599E0
1.448793878E0,-2.905603126E-2,-1.143470779E-2,9.760691643E0,9.760741588E0
1.450795441E0,-2.690125071E-2,-1.652956754E-2,9.758354187E0,9.758405266E0
1.452793878E0,-1.638591662E-2,-9.155427106E-3,9.764407158E0,9.764425199E0
1.454793878E0,-1.203804556E-2,-1.991975866E-2,9.769837379E0,9.769865103E0
1.456793878E0,-2.007298730E-2,-2.289814502E-2,9.761083603E0,9.761131100E0
1.458793878E0,-1.877054200E-2,-2.641283162E-2,9.754006386E0,9.754060208E0
1.460970441E0,-2.252464928E-2,-2.579034120E-2,9.752761841E0,9.752821952E0
1.462795441E0,-2.603933774E-2,-2.021663822E-2,9.755499840E0,9.755555539E0
1.464793878E0,-2.656606212E-2,-2.254380286E-2,9.759197235E0,9.759259432E0
1.466793878E0,-2.869211324E-2,-2.306095138E-2,9.764569283E0,9.764638668E0
1.468793878E0,-3.282929212E-2,-2.263957262E-2,9.759350777E0,9.759432253E0
1.470795441E0,-3.949474916E-2,-2.484223805E-2,9.754073143E0,9.754184735E0
1.472793878E0,-4.256890342E-2,-2.956360206E-2,9.751382828E0,9.751520557E0
1.474795441E0,-3.579810262E-2,-2.991794422E-2,9.753806114E0,9.753917690E0
1.476793878E0,-3.196737915E-2,-2.589568496E-2,9.755796432E0,9.755883175E0
1.478793878E0,-3.778050095E-2,-2.241930366E-2,9.754437447E0,9.754536375E0
1.480793878E0,-3.438073769E-2,-2.455493435E-2,9.756334305E0,9.756425782E0
1.482793878E0,-3.380613029E-2,-3.081816435E-2,9.760365486E0,9.760472685E0
1.484793878E0,-2.518700249E-2,-3.105758503E-2,9.760700226E0,9.760782133E0
1.486795441E0,-2.738009021E-2,-2.333867922E-2,9.756122589E0,9.756188925E0
1.488793878E0,-2.846227027E-2,-2.140416391E-2,9.748260498E0,9.748325547E0
1.490793878E0,-2.505292743E-2,-2.566584200E-2,9.748212814E0,9.748278795E0
1.492793878E0,-2.761951089E-2,-2.616383508E-2,9.747063637E0,9.747137884E0
1.494793878E0,-3.088520281E-2,-2.238099650E-2,9.751229286E0,9.751303882E0
1.496793878E0,-3.096181713E-2,-2.029325254E-2,9.753451347E0,9.753521602E0
1.498793878E0,-3.529053181E-2,-2.783020027E-2,9.753662109E0,9.753765657E0
1.500793878E0,-4.254975170E-2,-3.582683578E-2,9.752311707E0,9.752470337E0
1.502793878E0,-3.665044159E-2,-3.413173929E-2,9.755586624E0,9.755715177E0
1.504795441E0,-3.312617540E-2,-2.781104669E-2,9.751899719E0,9.751995638E0
1.506793878E0,-3.338475153E-2,-2.855803818E-2,9.760087967E0,9.760186844E0
1.508793878E0,-3.868072107E-2,-2.787808329E-2,9.763449669E0,9.763566091E0
1.510793878E0,-4.385219887E-2,-2.177765779E-2,9.767461777E0,9.767584494E0
1.512793878E0,-5.156152695E-2,-2.588610910E-2,9.766245842E0,9.766416258E0
1.514793878E0,-4.740519449E-2,-2.532107756E-2,9.767336845E0,9.767484705E0
1.516793878E0,-4.927267134E-2,-3.077028133E-2,9.767683029E0,9.767855771E0
1.518793878E0,-5.239471048E-2,-3.077028133E-2,9.764166832E0,9.764355890E0
1.520970441E0,-4.650497437E-2,-2.882618830E-2,9.760241508E0,9.760394867E0
1.522793878E0,-4.507802799E-2,-2.742797509E-2,9.762950897E0,9.763093493E0
1.524793878E0,-4.278917238E-2,-2.093490027E-2,9.759628296E0,9.759744549E0
1.526793878E0,-3.548207134E-2,-2.238099650E-2,9.757779121E0,9.757869300E0
1.528793878E0,-3.122038953E-2,-2.974556200E-2,9.747312546E0,9.747407931E0
1.530793878E0,-2.762908675E-2,-2.637452446E-2,9.747743607E0,9.747818443E0
1.532793878E0,-2.796427533E-2,-2.262041904E-2,9.750127792E0,9.750194134E0
1.534795441E0,-3.243664652E-2,-2.602018416E-2,9.750701904E0,9.750790574E0
1.536793878E0,-2.922841534E-2,-2.199792489E-2,9.748346329E0,9.748414966E0
1.538793878E0,-3.203441948E-2,-2.264914848E-2,9.742696762E0,9.742775754E0
1.540970441E0,-3.711012751E-2,-2.307052724E-2,9.748950005E0,9.749047933E0
1.542793878E0,-3.144065663E-2,-2.193088643E-2,9.755922318E0,9.755997629E0
1.544793878E0,-3.836468980E-2,-1.691264100E-2,9.758938789E0,9.759028854E0
1.546793878E0,-3.956178948E-2,-1.651041396E-2,9.764329910E0,9.764424014E0
1.548793878E0,-4.042370245E-2,-1.637633890E-2,9.764042854E0,9.764140265E0
1.550793878E0,-4.137180746E-2,-1.313937828E-2,9.753623009E0,9.753719602E0
1.552793878E0,-4.318182543E-2,-1.046745013E-2,9.751889229E0,9.751990452E0
1.554793878E0,-4.059608281E-2,-1.152089890E-2,9.751296043E0,9.751387353E0
1.556793878E0,-2.702574991E-2,-2.355894446E-2,9.753987312E0,9.754053204E0
1.558793878E0,-2.901772410E-2,-2.703532577E-2,9.755721092E0,9.755801708E0
1.560793878E0,-3.203441948E-2,-2.908476256E-2,9.759407997E0,9.759503911E0
1.562793878E0,-2.514869533E-2,-2.947741188E-2,9.758316040E0,9.758392968E0
1.564793878E0,-2.096363157E-2,-2.022621594E-2,9.760413170E0,9.760456640E0
1.566793878E0,-2.314714156E-2,-2.477519959E-2,9.758095741E0,9.758154646E0
1.568793878E0,-1.781286113E-2,-2.649902552E-2,9.756965637E0,9.757017882E0
1.570793878E0,-1.897165552E-2,-3.003286570E-2,9.755949974E0,9.756014647E0
1.572793878E0,-2.055182680E-2,-2.896026336E-2,9.755452156E0,9.755516790E0
1.574793878E0,-2.739924379E-2,-2.873042040E-2,9.759273529E0,9.759354280E0
1.576793878E0,-3.867114708E-2,-3.181415051E-2,9.763688087E0,9.763816501E0
1.578793878E0,-4.073015973E-2,-3.055959195E-2,9.762787819E0,9.762920610E0
1.580793878E0,-2.854846232E-2,-1.940261014E-2,9.759398460E0,9.759459503E0
1.582793878E0,-2.252464928E-2,-2.193088643E-2,9.753546715E0,9.753597379E0
1.584793878E0,-3.194822744E-2,-1.997721940E-2,9.752196312E0,9.752269104E0
1.586793878E0,-3.424666077E-2,-1.538035180E-2,9.752771378E0,9.752843633E0
1.588939191E0,-2.829946391E-2,-1.999637298E-2,9.755989075E0,9.756050612E0
1.590793878E0,-1.937388070E-2,-2.903687768E-2,9.762779236E0,9.762841640E0
1.592795441E0,-1.972822100E-2,-2.813665755E-2,9.760863304E0,9.760923794E0
1.594793878E0,-1.487278100E-2,-2.633621730E-2,9.756927490E0,9.756974369E0
1.596793878E0,-1.671152934E-2,-2.410482243E-2,9.751708031E0,9.751752142E0
1.598793878E0,-2.358767577E-2,-2.453578077E-2,9.750539780E0,9.750599180E0
1.600793878E0,-2.402820811E-2,-2.164358273E-2,9.752598763E0,9.752652379E0
1.602793878E0,-2.699701861E-2,-1.921107434E-2,9.750568390E0,9.750624689E0
1.604793878E0,-2.238099650E-2,-5.650316365E-3,9.748661995E0,9.748689324E0
1.606795441E0,-1.794693619E-2,-1.829170156E-3,9.747934341E0,9.747951034E0
1.608795441E0,-2.104982175E-2,-7.383718155E-3,9.748767853E0,9.748793375E0
1.610793878E0,-2.119347453E-2,-5.209783092E-3,9.745464325E0,9.745488762E0
1.612793878E0,-1.706586964E-2,-8.820239455E-3,9.749571800E0,9.749590726E0
1.614793878E0,-1.041956618E-2,-9.222464636E-3,9.750885010E0,9.750894938E0
1.616793878E0,-1.496854890E-2,-5.679046735E-3,9.755212784E0,9.755225921E0
1.618793878E0,-9.069235995E-3,-8.848969825E-3,9.762817383E0,9.762825606E0
1.620970441E0,-1.641464606E-2,-1.878969558E-2,9.769761086E0,9.769792944E0
1.622795441E0,-2.449747175E-2,-1.309149433E-2,9.769080162E0,9.769119649E0
1.624793878E0,-2.491885237E-2,-1.288080495E-2,9.765028954E0,9.765069243E0
1.626793878E0,-2.937206626E-2,-1.111867279E-2,9.760556221E0,9.760606748E0
1.628793878E0,-3.199611232E-2,-1.111867279E-2,9.756879807E0,9.756938605E0
1.630793878E0,-3.328897804E-2,-9.615113959E-3,9.757377625E0,9.757439147E0
1.632793878E0,-3.810611367E-2,-1.308191754E-2,9.757453918E0,9.757537096E0
1.634793878E0,-3.663128614E-2,-1.253604051E-2,9.749265671E0,9.749342548E0
1.636793878E0,-2.840480767E-2,-1.178904902E-2,9.745444298E0,9.745492824E0
1.638793878E0,-3.001371212E-2,-1.408748236E-2,9.742562294E0,9.742618710E0
1.640793878E0,-2.873042040E-2,-1.619437896E-2,9.745818138E0,9.745873941E0
1.642793878E0,-3.079901077E-2,-2.034113742E-2,9.745818138E0,9.745888031E0
1.644793878E0,-2.932418324E-2,-2.274491638E-2,9.748126030E0,9.748196671E0
1.646793878E0,-2.325248718E-2,-2.405693755E-2,9.750644684E0,9.750702086E0
1.648793878E0,-1.885673404E-2,-1.590707526E-2,9.750769615E0,9.750800824E0
1.650793878E0,-3.005201928E-2,-1.408748236E-2,9.758412361E0,9.758468804E0
1.652793878E0,-3.371036053E-2,-1.901953854E-2,9.768400192E0,9.768476874E0
1.654793878E0,-2.975513786E-2,-3.021482378E-2,9.774491310E0,9.774583299E0
1.656793878E0,-4.069185257E-2,-3.665044159E-2,9.771685600E0,9.771839057E0
1.658793878E0,-4.395754263E-2,-2.855803818E-2,9.764646530E0,9.764787232E0
1.660793878E0,-3.417962417E-2,-3.089477867E-2,9.763879776E0,9.763988479E0
1.662793878E0,-2.856761590E-2,-2.413355187E-2,9.762032509E0,9.762104140E0
1.664793878E0,-3.006159514E-2,-2.611595206E-2,9.763027191E0,9.763108402E0
1.666793878E0,-3.282929212E-2,-2.610637434E-2,9.756659508E0,9.756749667E0
1.668793878E0,-3.821146116E-2,-3.118208237E-2,9.741969109E0,9.742093951E0
1.670793878E0,-3.847961128E-2,-2.458366379E-2,9.740072250E0,9.740179284E0
1.672793878E0,-3.720589355E-2,-2.866338380E-2,9.744879723E0,9.744992903E0
1.674793878E0,-3.372951597E-2,-3.001371212E-2,9.750741005E0,9.750845535E0
1.676793878E0,-3.651636466E-2,-2.966894768E-2,9.752732277E0,9.752845767E0
1.678793878E0,-4.149630293E-2,-3.379655257E-2,9.757041931E0,9.757188704E0
1.680793878E0,-3.689943627E-2,-2.747585811E-2,9.757214546E0,9.757323003E0
1.682793878E0,-4.249228910E-2,-2.316629514E-2,9.752799988E0,9.752920069E0
1.684793878E0,-3.572148830E-2,-2.534023114E-2,9.743443489E0,9.743541922E0
1.686793878E0,-3.580768034E-2,-2.031240612E-2,9.745589256E0,9.745676207E0
1.688793878E0,-3.856579959E-2,-2.025494538E-2,9.748327255E0,9.748424583E0
1.690793878E0,-3.234087676E-2,-2.367386594E-2,9.751688004E0,9.751770368E0
1.692793878E0,-3.392105177E-2,-2.426762693E-2,9.750089645E0,9.750178852E0
1.694793878E0,-2.610637434E-2,-3.427539021E-2,9.751142502E0,9.751237687E0
1.696793878E0,-2.623087354E-2,-2.920926176E-2,9.747628212E0,9.747707269E0
1.698793878E0,-3.529053181E-2,-1.933557354E-2,9.751199722E0,9.751282752E0
1.700970441E0,-3.428496793E-2,-1.995806582E-2,9.751526833E0,9.751607526E0
1.702793878E0,-3.471592441E-2,-1.922065206E-2,9.747043610E0,9.747124384E0
1.704793878E0,-3.417962417E-2,-1.514093112E-2,9.750999451E0,9.751071109E0
1.706793878E0,-4.066311941E-2,-2.042732760E-2,9.751439095E0,9.751545271E0
1.708793878E0,-4.095042497E-2,-3.077985719E-2,9.753949165E0,9.754083691E0
1.710793878E0,-3.902548552E-2,-3.448608145E-2,9.753833771E0,9.753972806E0
1.712795441E0,-4.209006578E-2,-2.787808329E-2,9.750213623E0,9.750344325E0
1.714793878E0,-3.960967436E-2,-2.762908675E-2,9.742274284E0,9.742393983E0
1.716793878E0,-3.654509410E-2,-2.567541972E-2,9.738568306E0,9.738670721E0
1.718793878E0,-3.168007731E-2,-2.917095460E-2,9.736126900E0,9.736222141E0
1.720793878E0,-2.815581113E-2,-2.209369279E-2,9.736816406E0,9.736882181E0
1.722793878E0,-2.737051435E-2,-1.693179458E-2,9.745166779E0,9.745219924E0
1.724795441E0,-2.122220397E-2,-1.817677915E-2,9.749562263E0,9.749602305E0
1.726793878E0,-2.380794100E-2,-1.995806582E-2,9.750539780E0,9.750589271E0
1.728793878E0,-2.492842823E-2,-1.844492927E-2,9.749706268E0,9.749755585E0
1.730793878E0,-2.907518670E-2,-2.316629514E-2,9.750817299E0,9.750888167E0
1.732793878E0,-3.277183324E-2,-2.607764490E-2,9.751459122E0,9.751549058E0
1.734795441E0,-2.832819335E-2,-2.793554589E-2,9.754446983E0,9.754528119E0
1.736795441E0,-1.872265898E-2,-2.751416527E-2,9.755290031E0,9.755346799E0
1.738795441E0,-1.692221873E-2,-2.512954175E-2,9.754034996E0,9.754082046E0
1.740795441E0,-1.817677915E-2,-2.240015008E-2,9.748040199E0,9.748082883E0
1.742795441E0,-2.451662533E-2,-2.227565274E-2,9.744036674E0,9.744092979E0
1.744795441E0,-3.030101582E-2,-3.049255349E-2,9.740196228E0,9.740291089E0
1.746793878E0,-3.441904485E-2,-3.249410540E-2,9.747504234E0,9.747619162E0
1.748793878E0,-3.267606348E-2,-2.264914848E-2,9.752377510E0,9.752458552E0
1.750795441E0,-2.990836650E-2,-2.405693755E-2,9.754513741E0,9.754589256E0
1.752793878E0,-2.713109367E-2,-2.488054521E-2,9.755136490E0,9.755205947E0
1.754795441E0,-3.113419935E-2,-2.286941558E-2,9.755481720E0,9.755558207E0
1.756795441E0,-3.068408929E-2,-2.398032323E-2,9.752158165E0,9.752235920E0
1.758795441E0,-2.419101261E-2,-1.767878607E-2,9.744304657E0,9.744350722E0
1.760795441E0,-2.766739391E-2,-1.897165552E-2,9.743156433E0,9.743214187E0
1.762795441E0,-3.000413440E-2,-2.738966793E-2,9.749132156E0,9.749216802E0
1.764795441E0,-4.345954955E-2,-3.189076483E-2,9.756573677E0,9.756722589E0
1.766795441E0,-4.748180881E-2,-3.232172504E-2,9.762769699E0,9.762938667E0
1.768793878E0,-3.706223890E-2,-3.027228639E-2,9.773676872E0,9.773794024E0
1.770793878E0,-2.513911761E-2,-2.570414916E-2,9.772633553E0,9.772699690E0
1.772793878E0,-1.718079112E-2,-2.872084454E-2,9.765996933E0,9.766054278E0
1.774793878E0,-1.887588762E-2,-3.215891495E-2,9.758517265E0,9.758588510E0
1.776793878E0,-2.068590373E-2,-3.047339991E-2,9.754505157E0,9.754574691E0
1.778793878E0,-2.218946069E-2,-3.615244851E-2,9.750616074E0,9.750708343E0
1.780970441E0,-3.225468472E-2,-3.230256960E-2,9.748997688E0,9.749104561E0
1.782793878E0,-3.602794558E-2,-3.184288368E-2,9.747963905E0,9.748082493E0
1.784793878E0,-3.036805429E-2,-3.408385441E-2,9.747474670E0,9.747581566E0
1.786793878E0,-3.361459449E-2,-3.743573651E-2,9.749132156E0,9.749261981E0
1.788793878E0,-3.715800866E-2,-3.709097207E-2,9.751660347E0,9.751801679E0
1.790793878E0,-3.280056268E-2,-2.515827119E-2,9.761505127E0,9.761592655E0
1.792793878E0,-3.311659768E-2,-2.740882151E-2,9.758669853E0,9.758764535E0
1.794823566E0,-3.483084589E-2,-2.535938472E-2,9.760499954E0,9.760595046E0
1.796793878E0,-2.847184800E-2,-2.075294033E-2,9.762586594E0,9.762650169E0
1.798793878E0,-2.873042040E-2,-2.364513651E-2,9.766254425E0,9.766325308E0
1.800793878E0,-2.851973101E-2,-2.433466539E-2,9.768812180E0,9.768884120E0
1.802793878E0,-2.782062255E-2,-2.591483854E-2,9.777095795E0,9.777169721E0
1.804793878E0,-2.192131057E-2,-2.762908675E-2,9.780687332E0,9.780750922E0
1.806939191E0,-2.861549892E-2,-2.770570107E-2,9.774721146E0,9.774802296E0
1.808793878E0,-2.656606212E-2,-2.727474645E-2,9.761955261E0,9.762029512E0
1.810793878E0,-2.087743953E-2,-2.617341280E-2,9.754858017E0,9.754915471E0
1.812793878E0,-2.754289657E-2,-3.030101582E-2,9.749505043E0,9.749591035E0
1.814793878E0,-2.910391614E-2,-3.510857373E-2,9.747753143E0,9.747859816E0
1.816793878E0,-3.185245767E-2,-3.653552011E-2,9.744879723E0,9.745000268E0
1.818793878E0,-3.292506188E-2,-3.188119084E-2,9.747235298E0,9.747343045E0
1.820942316E0,-2.635537088E-2,-2.981259860E-2,9.752895355E0,9.752976531E0
1.823079816E0,-2.621171996E-2,-3.140234947E-2,9.749591827E0,9.749677634E0
1.824839191E0,-2.323333360E-2,-3.245579824E-2,9.754025459E0,9.754107126E0
1.826793878E0,-3.332728520E-2,-2.513911761E-2,9.757683754E0,9.757773052E0
1.828793878E0,-3.780923411E-2,-3.097139299E-2,9.761505127E0,9.761627483E0
1.830795441E0,-3.586514294E-2,-3.553953022E-2,9.764463425E0,9.764593967E0
1.832793878E0,-3.311659768E-2,-3.809653968E-2,9.758325577E0,9.758456134E0
1.834795441E0,-3.637271002E-2,-3.872860596E-2,9.750644684E0,9.750789436E0
1.836793878E0,-3.315490484E-2,-3.898717836E-2,9.746527672E0,9.746662039E0
1.838795441E0,-2.793554589E-2,-3.057874553E-2,9.752866745E0,9.752954691E0
1.840793878E0,-2.906560898E-2,-2.524446324E-2,9.749773026E0,9.749849032E0
1.842793878E0,-3.234087676E-2,-2.216073126E-2,9.744889259E0,9.744968122E0
1.844793878E0,-2.224692143E-2,-2.010171674E-2,9.743375778E0,9.743421912E0
1.846793878E0,-1.926853508E-2,-1.742021181E-2,9.737908363E0,9.737943008E0
1.848793878E0,-1.324472390E-2,-2.448789403E-2,9.734105110E0,9.734144923E0
1.850793878E0,-1.683602668E-2,-2.852930874E-2,9.734661102E0,9.734717466E0
1.852793878E0,-1.784159057E-2,-2.365471236E-2,9.738118172E0,9.738163245E0
1.854793878E0,-2.353979088E-2,-2.377921157E-2,9.740474701E0,9.740532171E0
1.856793878E0,-2.596272342E-2,-2.775358595E-2,9.746152878E0,9.746226975E0
1.858793878E0,-2.830903977E-2,-2.928587608E-2,9.743511200E0,9.743596336E0
1.860970441E0,-3.236960620E-2,-2.474647015E-2,9.737601280E0,9.737686526E0
1.862793878E0,-3.233129904E-2,-2.494758181E-2,9.735676765E0,9.735762414E0
1.864793878E0,-3.609498590E-2,-3.379655257E-2,9.732660294E0,9.732785904E0
1.866793878E0,-3.875733539E-2,-3.058832139E-2,9.734766960E0,9.734892169E0
1.868793878E0,-3.294421360E-2,-3.181415051E-2,9.749408722E0,9.749516290E0
1.870970441E0,-2.418143675E-2,-3.075112775E-2,9.767959595E0,9.768037931E0
1.872793878E0,-1.603157446E-2,-2.508165687E-2,9.766878128E0,9.766923490E0
1.874793878E0,-2.432508767E-2,-3.113419935E-2,9.764301300E0,9.764381236E0
1.876793878E0,-2.983175218E-2,-3.793372959E-2,9.759637833E0,9.759757145E0
1.878793878E0,-3.079901077E-2,-3.766557947E-2,9.750932693E0,9.751054080E0
1.880793878E0,-3.740701079E-2,-3.825934231E-2,9.751237869E0,9.751384673E0
1.882793878E0,-4.422569275E-2,-3.858495504E-2,9.751679420E0,9.751856040E0
1.884793878E0,-4.112280533E-2,-4.271255806E-2,9.745818138E0,9.745998493E0
1.886793878E0,-3.663128614E-2,-4.096000269E-2,9.741489410E0,9.741644394E0
1.888793878E0,-2.273534052E-2,-4.323928431E-2,9.745224953E0,9.745347398E0
1.890795441E0,-1.329260785E-2,-4.186022282E-2,9.754935265E0,9.755034136E0
1.892793878E0,-1.746809669E-2,-3.927448764E-2,9.757147789E0,9.757242469E0
1.894793878E0,-1.958457008E-2,-3.665044159E-2,9.758766174E0,9.758854649E0
1.896793878E0,-1.675941236E-2,-3.744531795E-2,9.756784439E0,9.756870688E0
1.898793878E0,-1.677856594E-2,-3.650678694E-2,9.757338524E0,9.757421244E0
1.900793878E0,-1.319683902E-2,-4.254017770E-2,9.752694130E0,9.752795836E0
1.902793878E0,-1.777455397E-2,-4.339251295E-2,9.747637749E0,9.747750537E0
1.904793878E0,-2.429635823E-2,-4.200387746E-2,9.749496460E0,9.749617216E0
1.906793878E0,-2.235226706E-2,-3.830722719E-2,9.745876312E0,9.745977230E0
1.908793878E0,-1.987187378E-2,-3.439988941E-2,9.749198914E0,9.749279855E0
1.910793878E0,-2.530192398E-2,-3.741658479E-2,9.750482559E0,9.750587178E0
1.912793878E0,-2.806004323E-2,-3.855622560E-2,9.757636070E0,9.757752591E0
1.914793878E0,-2.322375588E-2,-3.322194144E-2,9.756093979E0,9.756178184E0
1.916793878E0,-1.045787334E-2,-2.567541972E-2,9.754754066E0,9.754793462E0
1.918793878E0,-8.427590132E-3,-2.807919681E-2,9.762950897E0,9.762994914E0
1.920793878E0,-4.721365869E-3,-2.458366379E-2,9.762989044E0,9.763021137E0
1.922793878E0,-2.997540403E-3,-2.237142064E-2,9.761648178E0,9.761674273E0
1.924793878E0,-4.596867133E-3,-2.275449410E-2,9.761562347E0,9.761589950E0
1.926793878E0,-3.543418366E-3,-2.490927465E-2,9.759455681E0,9.759488112E0
1.928795441E0,-4.453215282E-3,-2.451662533E-2,9.754342079E0,9.754373906E0
1.930793878E0,-4.932055250E-3,-2.222776785E-2,9.751391411E0,9.751417992E0
1.932804816E0,-8.916007355E-3,-2.207453921E-2,9.748394966E0,9.748424037E0
1.934793878E0,-4.635174293E-3,-1.492066495E-2,9.753757477E0,9.753769990E0
1.936793878E0,-1.078348421E-2,-1.682645082E-2,9.753297806E0,9.753318282E0
1.938793878E0,-2.135627903E-3,-1.244027261E-2,9.758785248E0,9.758793411E0
1.940970441E0,-5.621585529E-3,-2.516784891E-2,9.757081032E0,9.757115111E0
1.942793878E0,-1.442267094E-2,-3.101927787E-2,9.754600525E0,9.754660507E0
1.944793878E0,-2.008256316E-2,-3.341347724E-2,9.758478165E0,9.758556034E0
1.946793878E0,-2.156696841E-2,-3.606625274E-2,9.758450508E0,9.758540989E0
1.948793878E0,-1.831085421E-2,-3.195780516E-2,9.754897118E0,9.754966651E0
1.950793878E0,-4.577713553E-3,-3.798161820E-2,9.757387161E0,9.757462158E0
1.952793878E0,-5.707777105E-3,-3.834553435E-2,9.761590958E0,9.761667941E0
1.954793878E0,-2.806004370E-3,-3.969586641E-2,9.760173798E0,9.760254925E0
1.956793878E0,-6.789956242E-3,-4.035666212E-2,9.767643929E0,9.767729658E0
1.958795441E0,-7.173028309E-3,-3.230256960E-2,9.767615318E0,9.767671366E0
1.960793878E0,-1.252646372E-2,-3.282929212E-2,9.772088051E0,9.772151224E0
1.962793878E0,-1.527500711E-2,-3.186203539E-2,9.776722908E0,9.776786759E0
1.964793878E0,-2.533065341E-2,-3.253241256E-2,9.777153015E0,9.777239952E0
1.966793878E0,-3.111504577E-2,-3.434243053E-2,9.776463509E0,9.776573341E0
1.968793878E0,-3.156515583E-2,-3.215891495E-2,9.770861626E0,9.770965534E0
1.970793878E0,-1.805227995E-2,-3.056916781E-2,9.762884140E0,9.762948688E0
1.972793878E0,-2.136585675E-2,-2.918053046E-2,9.758095741E0,9.758162762E0
1.974793878E0,-1.346499100E-2,-3.455311805E-2,9.751985550E0,9.752056060E0
1.976793878E0,-8.916007355E-3,-4.188895598E-2,9.745732307E0,9.745826409E0
1.978793878E0,-1.814804785E-2,-2.787808329E-2,9.744746208E0,9.744802984E0
1.980793878E0,-2.175850421E-2,-3.148854151E-2,9.752465248E0,9.752540355E0
1.982793878E0,-1.353202853E-2,-3.779965639E-2,9.752253532E0,9.752336176E0
1.984793878E0,-4.769249819E-3,-2.977429144E-2,9.747810364E0,9.747857003E0
1.986793878E0,-5.497086793E-3,-3.799119219E-2,9.745740891E0,9.745816490E0
1.988793878E0,-2.305137366E-2,-4.097915813E-2,9.746728897E0,9.746842302E0
1.990793878E0,-2.382709458E-2,-4.286578670E-2,9.745751381E0,9.745874778E0
1.992795441E0,-2.231395990E-2,-4.170699418E-2,9.749073982E0,9.749188730E0
1.994793878E0,-1.878011972E-2,-3.924575448E-2,9.748269081E0,9.748366171E0
1.996793878E0,-1.548569649E-2,-3.221637756E-2,9.758316040E0,9.758381507E0
1.998793878E0,-6.732495502E-3,-3.750277683E-2,9.765708923E0,9.765783254E0
2.000793878E0,-5.707777105E-3,-3.668874875E-2,9.765087128E0,9.765157718E0
2.002793878E0,-3.552995156E-3,-4.231033474E-2,9.756372452E0,9.756464842E0
2.004793878E0,6.224924698E-3,-3.800076991E-2,9.758613586E0,9.758689560E0
2.006793878E0,-2.193088876E-3,-3.381570429E-2,9.772863388E0,9.772922138E0
2.008795441E0,8.619126165E-4,-3.044467047E-2,9.771052361E0,9.771099828E0
2.010793878E0,7.240065839E-3,-2.045605890E-2,9.773198128E0,9.773222218E0
2.012793878E0,-2.451662440E-3,-3.666001558E-2,9.767251015E0,9.767320121E0
2.014795441E0,-8.341399021E-3,-3.596090898E-2,9.760996819E0,9.761066625E0
2.016793878E0,4.060565960E-3,-3.495534509E-2,9.761064529E0,9.761127963E0
2.018793878E0,5.497086793E-3,-3.767516091E-2,9.768103600E0,9.768177802E0
2.020970441E0,5.612008739E-3,-2.334825508E-2,9.772403717E0,9.772433220E0
2.022793878E0,2.834734973E-3,-2.954444848E-2,9.771129608E0,9.771174685E0
2.024939191E0,1.441309415E-2,-2.964021638E-2,9.768342972E0,9.768398574E0
2.026793878E0,1.190397050E-2,-2.354936861E-2,9.755902290E0,9.755937975E0
2.028793878E0,3.093308769E-3,-1.424071193E-2,9.742170334E0,9.742181233E0
2.030793878E0,2.681505866E-3,-1.402044483E-2,9.737974167E0,9.737984629E0
2.032793878E0,1.428859588E-2,-1.528458390E-2,9.740904808E0,9.740927279E0
2.034793878E0,1.416409668E-2,-1.697010174E-2,9.752148628E0,9.752173679E0
2.036793878E0,-6.129156100E-4,-3.221637756E-2,9.767748833E0,9.767801980E0
2.038793878E0,2.135627903E-3,-4.147715122E-2,9.775716782E0,9.775805006E0
2.040793878E0,5.401318893E-3,-3.871902823E-2,9.784872055E0,9.784950152E0
2.042793878E0,1.748725027E-2,-2.987005934E-2,9.795454979E0,9.795516131E0
2.044793878E0,1.862688735E-2,-3.915956244E-2,9.789010048E0,9.789106096E0
2.046793878E0,1.091755927E-2,-4.658158869E-2,9.776694298E0,9.776811363E0
2.048793878E0,9.557653219E-3,-4.724238813E-2,9.760193825E0,9.760312838E0
2.050795441E0,4.213795066E-3,-3.883394971E-2,9.751487732E0,9.751565967E0
2.052793878E0,-3.505111206E-3,-3.173753619E-2,9.747838974E0,9.747891270E0
2.054793878E0,-5.583278369E-3,-2.374090441E-2,9.750156403E0,9.750186905E0
2.056793878E0,-3.658340313E-3,-2.766739391E-2,9.748374939E0,9.748414887E0
2.058793878E0,-2.059013350E-3,-2.973598428E-2,9.747943878E0,9.747989450E0
2.060793878E0,3.217807040E-3,-3.106716089E-2,9.753566742E0,9.753616750E0
2.062793878E0,1.168370480E-3,-4.339251295E-2,9.756198883E0,9.756295451E0
2.064795441E0,7.086837431E-4,-4.154418781E-2,9.764282227E0,9.764370631E0
2.066793878E0,-4.520252813E-3,-4.164953157E-2,9.774616241E0,9.774706020E0
2.068793878E0,-7.316680625E-3,-4.145799577E-2,9.780419350E0,9.780509954E0
2.070793878E0,-3.329855576E-2,-3.003286570E-2,9.786299706E0,9.786402439E0
2.072793878E0,-1.771709183E-3,-4.675397277E-2,9.778331757E0,9.778443691E0
2.074795441E0,2.673844621E-2,-4.415865615E-2,9.784277916E0,9.784414099E0
2.076795441E0,4.424484912E-3,-2.952529490E-2,9.796862602E0,9.796908092E0
2.078793878E0,7.958326489E-3,-3.388274461E-2,9.800147057E0,9.800208860E0
2.080793878E0,2.038902044E-2,-4.137180746E-2,9.794611931E0,9.794720528E0
2.082793878E0,1.582088508E-2,-2.917095460E-2,9.778101921E0,9.778158233E0
2.084793878E0,8.820239455E-3,-2.843353897E-2,9.764981270E0,9.765026649E0
2.086793878E0,8.829816245E-3,-3.048297763E-2,9.751124382E0,9.751176026E0
2.088793878E0,9.816226549E-3,-3.428496793E-2,9.747618675E0,9.747683912E0
2.090793878E0,1.664448902E-2,-3.388274461E-2,9.751918793E0,9.751991859E0
2.092793878E0,2.110728249E-2,-3.764642775E-2,9.757530212E0,9.757625665E0
2.094793878E0,1.883758046E-2,-3.303998336E-2,9.768496513E0,9.768570552E0
2.096793878E0,1.943134144E-2,-2.609679848E-2,9.772768021E0,9.772822182E0
2.098793878E0,1.545696612E-2,-2.646071650E-2,9.769817352E0,9.769865413E0
2.100970441E0,6.483498029E-3,-2.523488551E-2,9.764176369E0,9.764211130E0
2.102795441E0,2.796427580E-3,-3.077985719E-2,9.755721092E0,9.755770049E0
2.104793878E0,1.162624359E-2,-3.761769831E-2,9.746824265E0,9.746903791E0
2.106793878E0,8.619125932E-3,-3.245579824E-2,9.745204926E0,9.745262783E0
2.108793878E0,6.129156332E-3,-2.634579502E-2,9.750156403E0,9.750193923E0
2.110793878E0,3.620032920E-3,-2.009214088E-2,9.750741005E0,9.750762378E0
2.112795441E0,5.190629512E-3,-2.422931977E-2,9.756093979E0,9.756125446E0
2.114795441E0,1.934514963E-3,-2.572330274E-2,9.753584862E0,9.753618974E0
2.116795441E0,-7.776367012E-3,-1.869392768E-2,9.755816460E0,9.755837469E0
2.118795441E0,-5.765237845E-3,-1.570596360E-2,9.759360313E0,9.759374654E0
2.120795441E0,-1.146343816E-2,-2.677675337E-2,9.750912666E0,9.750956170E0
2.122793878E0,-1.267969236E-2,-2.092532441E-2,9.747609138E0,9.747639846E0
2.124793878E0,-1.479616668E-2,-2.245761082E-2,9.735274315E0,9.735311462E0
2.126795441E0,-1.354160532E-2,-3.307829052E-2,9.722728729E0,9.722794428E0
2.128793878E0,3.122039139E-3,-2.459324151E-2,9.726530075E0,9.726561668E0
2.130793878E0,4.232948646E-3,-2.441127971E-2,9.738127708E0,9.738159225E0
2.132795441E0,-1.340752933E-3,-3.146938607E-2,9.749571800E0,9.749622680E0
2.134795441E0,4.309563083E-4,-3.550122306E-2,9.760020256E0,9.760084832E0
2.136795441E0,1.331176143E-3,-3.349967301E-2,9.759215355E0,9.759272941E0
2.138795441E0,-3.332728753E-3,-3.035847656E-2,9.759303093E0,9.759350880E0
2.140795441E0,-1.410663594E-2,-2.831861749E-2,9.754159927E0,9.754211236E0
2.142793878E0,-1.210508309E-2,-2.007298730E-2,9.750032425E0,9.750060602E0
2.144793878E0,-8.753201924E-3,-2.097320743E-2,9.742294312E0,9.742320819E0
2.146793878E0,-1.429817267E-2,-2.392286249E-2,9.742897034E0,9.742936896E0
2.148793878E0,-9.155427106E-3,-1.890461706E-2,9.748173714E0,9.748196344E0
2.150793878E0,-1.015141513E-2,-1.585919224E-2,9.753460884E0,9.753479060E0
2.152793878E0,-1.224873587E-2,-2.093490027E-2,9.762166023E0,9.762196155E0
2.154793878E0,-1.609861106E-2,-2.393244021E-2,9.768965721E0,9.769008301E0
2.156793878E0,-1.558146439E-2,-2.529234625E-2,9.765077591E0,9.765122777E0
2.158793878E0,-8.303090930E-3,-3.120123595E-2,9.755308151E0,9.755361581E0
2.160793878E0,-9.145850316E-3,-2.590526268E-2,9.749476433E0,9.749515139E0
2.162793878E0,-7.508216426E-3,-2.603933774E-2,9.749170303E0,9.749207969E0
2.164793878E0,-1.116655674E-2,-1.970906742E-2,9.738837242E0,9.738863587E0
2.166793878E0,-1.289038174E-2,-1.428859588E-2,9.730112076E0,9.730131106E0
2.168793878E0,-2.224692143E-2,-2.106897533E-2,9.728205681E0,9.728253934E0
2.170793878E0,-1.234450471E-2,-2.542642131E-2,9.726204872E0,9.726245941E0
2.172795441E0,-2.146162465E-2,-2.847184800E-2,9.727727890E0,9.727793231E0
2.174793878E0,-2.395159379E-2,-3.259944916E-2,9.728953362E0,9.729037461E0
2.176793878E0,-1.384806260E-2,-3.270479664E-2,9.724280357E0,9.724345214E0
2.178793878E0,-1.080263779E-2,-2.903687768E-2,9.732419968E0,9.732469279E0
2.180970441E0,-1.603157446E-2,-2.622129582E-2,9.739305496E0,9.739353989E0
2.182793878E0,-1.462378446E-2,-2.686294354E-2,9.740225792E0,9.740273813E0
2.184793878E0,-7.412448525E-3,-2.654690854E-2,9.740799904E0,9.740838899E0
2.186793878E0,-9.088389575E-3,-2.392286249E-2,9.745234489E0,9.745268091E0
2.188793878E0,-1.893334836E-2,-1.529416069E-2,9.747274399E0,9.747304786E0
2.190793878E0,-2.338656224E-2,-9.825803339E-3,9.740838051E0,9.740871081E0
2.192793878E0,-2.081997879E-2,-1.704671606E-2,9.742466927E0,9.742504087E0
2.194793878E0,-1.352245174E-2,-2.191173285E-2,9.742332458E0,9.742366484E0
2.196793878E0,-3.275267780E-3,-1.877054200E-2,9.738683701E0,9.738702341E0
2.198793878E0,-1.314895507E-2,-2.291729860E-2,9.741833687E0,9.741869517E0
2.200793878E0,-1.098459680E-2,-1.918234490E-2,9.744976044E0,9.745001114E0
2.202793878E0,3.390189726E-3,-2.911349386E-2,9.741777420E0,9.741821513E0
2.204793878E0,7.460332476E-3,-2.094447799E-2,9.739755630E0,9.739781007E0
2.206793878E0,4.501099233E-3,-1.328303106E-2,9.752186775E0,9.752196860E0
2.208793878E0,1.149216841E-4,-1.613691822E-2,9.757837296E0,9.757850639E0
2.210793878E0,-2.825158183E-3,-7.852981798E-3,9.756745338E0,9.756748908E0
2.212793878E0,-3.936067689E-3,-1.086009853E-2,9.757128716E0,9.757135553E0
2.214793878E0,-4.022258800E-4,-1.281376742E-2,9.764320374E0,9.764328790E0
2.216793878E0,-8.753201924E-3,-2.385582589E-2,9.762548447E0,9.762581518E0
2.218793878E0,6.224924698E-3,-1.898123138E-2,9.759590149E0,9.759610592E0
2.220970441E0,7.393294945E-3,-2.618298866E-2,9.763047218E0,9.763085127E0
2.222793878E0,-1.375229470E-2,-2.149035409E-2,9.762855530E0,9.762888868E0
2.224793878E0,-1.753513329E-2,-2.013044804E-2,9.767768860E0,9.767805343E0
2.226793878E0,-2.330994792E-2,-2.428678051E-2,9.766571045E0,9.766629059E0
2.228795441E0,-2.665225416E-2,-2.274491638E-2,9.761811256E0,9.761874138E0
2.230793878E0,-1.032379828E-2,-2.261084132E-2,9.760892868E0,9.760924516E0
2.232793878E0,-8.552088402E-3,-3.155557811E-2,9.760585785E0,9.760640540E0
2.234793878E0,-1.257434767E-2,-3.739742935E-2,9.758211136E0,9.758290898E0
2.236793878E0,-2.148077823E-2,-3.067451343E-2,9.760499954E0,9.760571792E0
2.238793878E0,-2.378878742E-2,-2.399947681E-2,9.756573677E0,9.756632195E0
2.240793878E0,-2.321418002E-2,-2.153823897E-2,9.754916191E0,9.754967590E0
2.242793878E0,-1.607945748E-2,-2.421016619E-2,9.753317833E0,9.753361135E0
2.244793878E0,-2.142331749E-2,-2.545515262E-2,9.751871109E0,9.751927863E0
2.246939191E0,-1.628057100E-2,-2.283110842E-2,9.757300377E0,9.757340671E0
2.248795441E0,-1.913446002E-2,-2.591483854E-2,9.762395859E0,9.762449007E0
2.250795441E0,-1.250731014E-2,-2.771527879E-2,9.765019417E0,9.765066758E0
2.252793878E0,-1.729571261E-2,-2.579991706E-2,9.763957024E0,9.764006429E0
2.254793878E0,-1.801397279E-2,-2.210326865E-2,9.757195473E0,9.757237137E0
2.256793878E0,-2.430593409E-2,-2.551261336E-2,9.751335144E0,9.751398811E0
2.258793878E0,-2.823242545E-2,-2.012087032E-2,9.755002975E0,9.755064581E0
2.260970441E0,-1.385763939E-2,-1.845450513E-2,9.754264832E0,9.754292133E0
2.262793878E0,-1.584961452E-2,-1.756386459E-2,9.751411438E0,9.751440136E0
2.264793878E0,-1.817677915E-2,-2.386540174E-2,9.753067970E0,9.753114107E0
2.266793878E0,-1.953668520E-2,-1.365652680E-2,9.759235382E0,9.759264492E0
2.268793878E0,-1.637633890E-2,-4.951209296E-3,9.763343811E0,9.763358801E0
2.270793878E0,-2.193088643E-2,-1.656787586E-3,9.766455650E0,9.766480414E0
2.272793878E0,-1.440351736E-2,-9.097966831E-4,9.764608383E0,9.764619049E0
2.274793878E0,-1.790862903E-2,-1.695094863E-3,9.758440018E0,9.758456598E0
2.276793878E0,-6.818686612E-3,4.050989170E-3,9.751142502E0,9.751145727E0
2.278793878E0,-5.104437936E-3,-5.899312906E-3,9.744439125E0,9.744442248E0
2.280793878E0,-6.789956242E-3,-7.603984792E-3,9.744774818E0,9.744780151E0
2.282795441E0,-5.219359882E-3,-7.642291952E-3,9.744688034E0,9.744692429E0
2.284793878E0,3.485957626E-3,3.007117193E-3,9.740388870E0,9.740389958E0
2.286795441E0,-1.273715287E-3,1.695094863E-3,9.737553596E0,9.737553827E0
2.288793878E0,4.932055250E-3,8.149862289E-3,9.732975960E0,9.732980622E0
2.290795441E0,5.420472473E-3,5.535394419E-3,9.728953362E0,9.728956446E0
2.292793878E0,-5.621585529E-3,-1.896207687E-3,9.734738350E0,9.734740158E0
2.294793878E0,-9.959879331E-3,5.554548115E-4,9.742811203E0,9.742816310E0
2.296793878E0,-1.366610359E-2,-1.570596360E-3,9.746440887E0,9.746450595E0
2.298793878E0,-1.677856594E-2,-4.826710559E-3,9.746239662E0,9.746255300E0
2.300793878E0,-1.988145150E-2,-1.265096199E-2,9.746028900E0,9.746057390E0
2.302793878E0,-1.564850286E-2,-1.609861106E-2,9.745061874E0,9.745087736E0
2.304793878E0,-3.150769323E-2,-1.746809669E-2,9.744630814E0,9.744697407E0
2.306795441E0,-2.933375910E-2,-2.601060644E-2,9.737476349E0,9.737555272E0
2.308793878E0,-3.328897804E-2,-2.668098360E-2,9.733616829E0,9.733710320E0
2.310793878E0,-3.666959330E-2,-2.250549570E-2,9.734354019E0,9.734449102E0
2.312793878E0,-3.491703793E-2,-2.167231403E-2,9.742437363E0,9.742524039E0
2.314793878E0,-2.713109367E-2,-1.946964860E-2,9.750387192E0,9.750444377E0
2.316793878E0,-2.601060644E-2,-1.795651205E-2,9.753728867E0,9.753780077E0
2.318793878E0,-3.306871280E-2,-1.664448902E-2,9.755558014E0,9.755628260E0
2.320942316E0,-3.808695823E-2,-2.002510242E-2,9.756198883E0,9.756293777E0
2.323079816E0,-3.031059355E-2,-1.233492792E-2,9.752732277E0,9.752787178E0
2.324831378E0,-3.194822744E-2,-1.942176372E-2,9.751899719E0,9.751971392E0
2.326793878E0,-2.069547959E-2,-1.858858019E-2,9.752503395E0,9.752543069E0
2.328793878E0,-2.632664144E-2,-1.619437896E-2,9.752838135E0,9.752887113E0
2.330793878E0,-2.897941694E-2,-1.938345656E-2,9.750002861E0,9.750065195E0
2.332793878E0,-2.978386916E-2,-1.733401977E-2,9.746296883E0,9.746357805E0
2.334793878E0,-1.814804785E-2,-1.759259403E-2,9.746421814E0,9.746454588E0
2.336793878E0,-1.278503705E-2,-1.558146439E-2,9.741067886E0,9.741088738E0
2.338793878E0,-2.636494860E-2,-5.267243832E-3,9.745827675E0,9.745864760E0
2.340970441E0,-2.854846232E-2,4.290409386E-3,9.744420052E0,9.744462816E0
2.342793878E0,-1.897165552E-2,-5.420472473E-3,9.740302086E0,9.740322070E0
2.344795441E0,-2.052309550E-2,-1.491108816E-2,9.742054939E0,9.742087968E0
2.346795441E0,-3.213976324E-2,-1.625183970E-2,9.744898796E0,9.744965348E0
2.348793878E0,-1.211465988E-2,-7.546523586E-3,9.747667313E0,9.747677762E0
2.350795441E0,-1.840662211E-2,-8.580818772E-3,9.747531891E0,9.747553047E0
2.352793878E0,-1.527500711E-2,-3.074155189E-3,9.749907494E0,9.749919944E0
2.354793878E0,-1.073560026E-2,-8.283937350E-3,9.747877121E0,9.747886553E0
2.356793878E0,-1.889504120E-2,-9.481038433E-4,9.757482529E0,9.757500870E0
2.358795441E0,-1.439394057E-2,8.810661966E-4,9.755423546E0,9.755434205E0
2.360793878E0,-1.150174532E-2,-2.968810149E-4,9.750251770E0,9.750258558E0
2.362793878E0,-1.779370755E-2,2.212242456E-3,9.747504234E0,9.747520726E0
2.364793878E0,-1.626141742E-2,-5.985504016E-3,9.745531082E0,9.745546487E0
2.366793878E0,-2.115516737E-2,-6.751649082E-3,9.749322891E0,9.749348181E0
2.368793878E0,-1.617522538E-2,-9.030928835E-3,9.753623009E0,9.753640602E0
2.370793878E0,-2.444958687E-2,-1.146343816E-2,9.764857292E0,9.764894630E0
2.372793878E0,-2.670971490E-2,-9.136273526E-3,9.767730713E0,9.767771504E0
2.374793878E0,-1.604115032E-2,-2.534023114E-2,9.772088051E0,9.772134072E0
2.376793878E0,-7.374141132E-4,-2.004425600E-2,9.763477325E0,9.763497929E0
2.378793878E0,-1.602199674E-2,-1.200931519E-2,9.757444382E0,9.757464926E0
2.380793878E0,-1.927811280E-2,-4.788403399E-3,9.752598763E0,9.752618992E0
2.382793878E0,-1.932599582E-2,-3.045424353E-3,9.740541458E0,9.740561106E0
2.384793878E0,-2.050394192E-2,-1.915361383E-3,9.739315033E0,9.739336804E0
2.386795441E0,-2.701617219E-2,-6.991068949E-4,9.732162476E0,9.732199999E0
2.388793878E0,-2.560838126E-2,1.011310797E-2,9.734134674E0,9.734173612E0
2.390793878E0,-1.428859588E-2,9.567230009E-3,9.732190132E0,9.732205324E0
2.392793878E0,-2.873042040E-2,9.940725751E-3,9.748404503E0,9.748451908E0
2.394793878E0,-1.304361038E-2,1.090798248E-2,9.751028061E0,9.751042886E0
2.396795441E0,2.978386823E-3,1.694137231E-2,9.741844177E0,9.741859363E0
2.398793878E0,-8.973468095E-3,1.232535113E-2,9.738597870E0,9.738609804E0
2.400793878E0,-3.600879340E-3,2.400905453E-2,9.729910851E0,9.729941139E0
2.402793878E0,-1.507389359E-2,3.736870363E-2,9.727171898E0,9.727255357E0
2.404793878E0,-2.499546669E-2,2.982217632E-2,9.746249199E0,9.746326876E0
2.406793878E0,-3.428496886E-3,2.795469947E-2,9.758450508E0,9.758491151E0
2.408793878E0,-2.579991706E-2,2.873999812E-2,9.768918037E0,9.768994382E0
2.410793878E0,-2.826115675E-2,3.031059355E-2,9.780343056E0,9.780430855E0
2.412793878E0,5.746083916E-4,5.040273443E-2,9.773830414E0,9.773960391E0
2.414793878E0,-2.442085650E-3,7.183562219E-2,9.759666443E0,9.759931116E0
2.416793878E0,-9.883264080E-3,9.670659900E-2,9.761351585E0,9.761835617E0
2.418793878E0,9.576806769E-5,1.117900610E-1,9.754006386E0,9.754646975E0
2.420970441E0,8.331821882E-4,1.275439113E-1,9.748087883E0,9.748922275E0
2.422795441E0,9.672574815E-4,1.318439096E-1,9.744793892E0,9.745685802E0
2.424795441E0,-8.973468095E-3,1.297561526E-1,9.741881371E0,9.742749603E0
2.426795441E0,-1.274672989E-2,1.220947132E-1,9.755184174E0,9.755956532E0
2.428793878E0,-7.690175902E-3,1.193748936E-1,9.749094009E0,9.749827871E0
2.430793878E0,-9.528922848E-3,1.131787002E-1,9.734441757E0,9.735104342E0
2.432795441E0,-2.630748786E-2,9.614156187E-2,9.745933533E0,9.746443234E0
2.434795441E0,-2.733220719E-2,8.073247969E-2,9.760279655E0,9.760651809E0
2.436795441E0,-2.727474645E-2,7.617391646E-2,9.765728951E0,9.766064116E0
2.438793878E0,-2.763866447E-2,7.748594880E-2,9.766629219E0,9.766975697E0
2.440793878E0,-2.632664144E-2,7.786902040E-2,9.760882378E0,9.761228481E0
2.442795441E0,-3.507984057E-2,7.289864868E-2,9.759637833E0,9.759973127E0
2.444793878E0,-4.013639688E-2,7.416278869E-2,9.760508537E0,9.760872807E0
2.446793878E0,-2.762908675E-2,8.635406196E-2,9.755748749E0,9.756170050E0
2.448793878E0,-7.939172909E-3,9.495404363E-2,9.753824234E0,9.754289646E0
2.450793878E0,-3.734954516E-4,9.779834747E-2,9.755624771E0,9.756114971E0
2.452795441E0,7.996633649E-3,1.019546837E-1,9.753700256E0,9.754236382E0
2.454795441E0,7.546523586E-3,9.095093608E-2,9.754600525E0,9.755027443E0
2.456793878E0,9.260771796E-3,8.702444285E-2,9.753853798E0,9.754246405E0
2.458793878E0,1.444182452E-2,8.829815686E-2,9.748614311E0,9.749024880E0
2.461003253E0,4.673481919E-3,7.428729534E-2,9.752857208E0,9.753141246E0
2.462643878E0,-1.674983650E-2,6.180871278E-2,9.763411522E0,9.763621532E0
2.464939191E0,-1.718079112E-2,6.016149744E-2,9.762261391E0,9.762461884E0
2.466793878E0,-2.649902552E-2,4.841075838E-2,9.751976967E0,9.752133129E0
2.468793878E0,-2.605849132E-2,3.009990230E-2,9.737898827E0,9.737980212E0
2.470793878E0,-2.625960298E-2,1.706586964E-2,9.730590820E0,9.730641218E0
2.472793878E0,-2.554134279E-2,-1.177947270E-3,9.741662025E0,9.741695580E0
2.474793878E0,-2.358767577E-2,-1.097502001E-2,9.740110397E0,9.740145142E0
2.476793878E0,-2.827073261E-2,-2.229480632E-2,9.738501549E0,9.738568104E0
2.478793878E0,-3.573106602E-2,-2.775358595E-2,9.739000320E0,9.739105411E0
2.480795441E0,-3.868072107E-2,-3.737827763E-2,9.744209290E0,9.744357753E0
2.482793878E0,-5.091987923E-2,-5.695326999E-2,9.772757530E0,9.773056137E0
2.484793878E0,-6.328354031E-2,-9.791327268E-2,9.782066345E0,9.782761052E0
2.486793878E0,-7.107906044E-2,-1.329548061E-1,9.772384644E0,9.773547505E0
2.488793878E0,-7.163451612E-2,-1.714152694E-1,9.754513741E0,9.756282746E0
2.490793878E0,-6.665457040E-2,-2.151812762E-1,9.740129471E0,9.742734109E0
2.492793878E0,-6.685569137E-2,-2.483936250E-1,9.725027084E0,9.728428489E0
2.494793878E0,-6.960423291E-2,-2.660724223E-1,9.724270821E0,9.728159244E0
2.496793878E0,-5.543055758E-2,-2.713300884E-1,9.725256920E0,9.729199079E0
2.498793878E0,-3.254198655E-2,-2.561796010E-1,9.728848457E0,9.732275134E0
2.500970441E0,-3.154600039E-2,-2.321034819E-1,9.727918625E0,9.730738304E0
2.502793878E0,-2.534980699E-2,-2.026164979E-1,9.717203140E0,9.719348380E0
2.504793878E0,-1.655829884E-2,-1.615224332E-1,9.703210831E0,9.704569238E0
2.506793878E0,-2.723643929E-2,-1.101907417E-1,9.709933281E0,9.710596693E0
2.508795441E0,-1.919192076E-2,-7.202716172E-2,9.709368706E0,9.709654829E0
2.510793878E0,-1.314895507E-2,-3.723462299E-2,9.702473640E0,9.702553997E0
2.512795441E0,-1.385763939E-2,-1.926853508E-2,9.703057289E0,9.703086317E0
2.514795441E0,-7.517793216E-3,-7.920019329E-3,9.711025238E0,9.711031378E0
2.516795441E0,-8.456320502E-3,8.379706182E-3,9.718342781E0,9.718350073E0
2.518795441E0,-1.118571032E-2,1.523669995E-2,9.729307175E0,9.729325536E0
2.520795441E0,-1.218169741E-2,2.440170199E-2,9.742208481E0,9.742246657E0
2.522795441E0,-3.648763523E-3,2.376963384E-2,9.750309944E0,9.750339600E0
2.524793878E0,-4.960786086E-3,1.866519824E-2,9.749103546E0,9.749122676E0
2.526795441E0,-1.140597742E-2,1.385763939E-2,9.749609947E0,9.749626467E0
2.528793878E0,-1.126232464E-2,1.377144828E-2,9.754159927E0,9.754176151E0
2.530793878E0,-9.892841801E-3,1.635718532E-2,9.756266594E0,9.756285322E0
2.532795441E0,3.830722708E-4,2.793554589E-2,9.758038521E0,9.758078516E0
2.534795441E0,-2.183512086E-3,3.190992028E-2,9.758268356E0,9.758320774E0
2.536795441E0,-6.952761672E-3,2.588610910E-2,9.749801636E0,9.749838479E0
2.538795441E0,-2.777274000E-3,2.076251805E-2,9.737476349E0,9.737498880E0
2.540793878E0,-1.080263779E-2,9.308655746E-3,9.733349800E0,9.733360246E0
2.542793878E0,-2.467943169E-2,-8.868123405E-3,9.723025322E0,9.723060687E0
2.544793878E0,-2.012087032E-2,-1.540908217E-2,9.719223976E0,9.719257018E0
2.546793878E0,-2.351106144E-2,-1.171243470E-2,9.728655815E0,9.728691275E0
2.548793878E0,-2.496673539E-2,-5.966350436E-3,9.736911774E0,9.736945611E0
2.550793878E0,-2.127008885E-2,-1.752555603E-3,9.749715805E0,9.749739164E0
2.552793878E0,-1.912488416E-2,1.669237576E-2,9.756342888E0,9.756375912E0
2.554793878E0,-1.917276718E-2,2.204580791E-2,9.754513741E0,9.754557495E0
2.556793878E0,-2.084870823E-2,1.697967947E-2,9.751928329E0,9.751965398E0
2.558793878E0,-1.826296933E-2,9.931148961E-3,9.747034073E0,9.747056242E0
2.560795441E0,-2.651817910E-2,6.531381980E-3,9.739113808E0,9.739152100E0
2.562793878E0,-2.747585811E-2,1.549527328E-2,9.738213539E0,9.738264628E0
2.564793878E0,-2.702574991E-2,2.329079434E-2,9.745195389E0,9.745260695E0
2.566793878E0,-2.503377385E-2,2.149035409E-2,9.759723663E0,9.759779429E0
2.568793878E0,-2.804088965E-2,1.023760624E-2,9.769961357E0,9.770006961E0
2.570972003E0,-1.839704439E-2,2.375048120E-3,9.772815704E0,9.772833309E0
2.572795441E0,-2.085828595E-2,5.908889696E-3,9.758163452E0,9.758187534E0
2.574793878E0,-2.189257927E-2,3.086604923E-2,9.752981186E0,9.753054599E0
2.576795441E0,-1.634760946E-2,4.770207778E-2,9.760585785E0,9.760716039E0
2.578795441E0,-7.661445532E-3,6.087975949E-2,9.757808685E0,9.758001608E0
2.580970441E0,-3.169923089E-3,6.262274086E-2,9.743701935E0,9.743903686E0
2.582793878E0,3.562572179E-3,6.231627986E-2,9.740283012E0,9.740483005E0
2.584793878E0,1.765963249E-2,6.506482512E-2,9.747800827E0,9.748033969E0
2.586793878E0,2.315671928E-2,6.938396394E-2,9.750012398E0,9.750286771E0
2.588793878E0,1.541865896E-2,6.535212696E-2,9.746593475E0,9.746824765E0
2.590793878E0,2.240972780E-2,7.238151133E-2,9.756927490E0,9.757221701E0
2.592793878E0,2.470816299E-2,8.175720274E-2,9.779231071E0,9.779604035E0
2.594793878E0,2.662352286E-2,6.884766370E-2,9.780506134E0,9.780784685E0
2.596793878E0,2.393244021E-2,4.806599393E-2,9.760863304E0,9.761010990E0
2.598793878E0,2.827073261E-2,2.391328663E-2,9.755146027E0,9.755216301E0
2.600793878E0,2.554134279E-2,1.723825233E-3,9.769492149E0,9.769525689E0
2.602793878E0,3.517561033E-2,-5.382165313E-3,9.768926620E0,9.768991432E0
2.604793878E0,5.436753109E-2,-7.958326489E-3,9.755290031E0,9.755444775E0
2.606793878E0,8.133582026E-2,-1.673068292E-2,9.741374969E0,9.741728888E0
2.608793878E0,1.105833873E-1,-3.461058065E-2,9.742609978E0,9.743299018E0
2.610793878E0,1.407982111E-1,-5.834190920E-2,9.740809441E0,9.742001667E0
2.612793878E0,1.808771491E-1,-8.333737403E-2,9.739612579E0,9.741648467E0
2.614793878E0,2.234652042E-1,-1.085148007E-1,9.735848427E0,9.739017237E0
2.616793878E0,2.904549837E-1,-1.185034066E-1,9.724949837E0,9.730008041E0
2.618793878E0,3.300742209E-1,-1.303020269E-1,9.744142532E0,9.750602099E0
2.620793878E0,3.216466308E-1,-1.431158036E-1,9.769826889E0,9.776167763E0
2.622793878E0,2.703245282E-1,-1.595208794E-1,9.779719353E0,9.784755126E0
2.624793878E0,2.043499053E-1,-1.820646673E-1,9.783877373E0,9.787704678E0
2.626793878E0,1.322461218E-1,-1.978568286E-1,9.776694298E0,9.779590367E0
2.628793878E0,5.671384931E-2,-2.010459006E-1,9.784939766E0,9.787169261E0
2.630793878E0,-2.568499558E-2,-2.104599029E-1,9.788272858E0,9.790568861E0
2.632793878E0,-9.563399851E-2,-2.180926204E-1,9.782823563E0,9.785721594E0
2.634793878E0,-1.486128867E-1,-2.167135626E-1,9.769674301E0,9.773207585E0
2.636795441E0,-1.885577589E-1,-1.949359030E-1,9.773044586E0,9.776806969E0
2.638793878E0,-1.995136142E-1,-1.528362632E-1,9.758689880E0,9.761925670E0
2.640793878E0,-2.023004591E-1,-9.889010340E-2,9.762730598E0,9.765327105E0
2.642793878E0,-1.973205209E-1,-5.400361121E-2,9.770287514E0,9.772429067E0
2.644793878E0,-1.961808950E-1,-1.807143353E-2,9.777000427E0,9.778985166E0
2.646795441E0,-1.958169639E-1,4.347870126E-3,9.772805214E0,9.774767769E0
2.648793878E0,-1.891036183E-1,2.660436928E-2,9.760173798E0,9.762041822E0
2.650793878E0,-1.782818288E-1,4.751053825E-2,9.751343727E0,9.753089057E0
2.652793878E0,-1.681495607E-1,5.333323777E-2,9.759465218E0,9.761059371E0
2.654793878E0,-1.431732625E-1,6.020938605E-2,9.750213623E0,9.751450633E0
2.656793878E0,-1.259254366E-1,6.142564118E-2,9.751296043E0,9.752302541E0
2.658793878E0,-1.104014292E-1,7.650911063E-2,9.760747910E0,9.761672084E0
2.660970441E0,-9.120950848E-2,8.832688630E-2,9.762136459E0,9.762962105E0
2.662793878E0,-8.138370514E-2,9.243533760E-2,9.770871162E0,9.771647296E0
2.664793878E0,-8.012913913E-2,8.427590132E-2,9.779623985E0,9.780315353E0
2.666793878E0,-8.551130444E-2,7.813716680E-2,9.773869514E0,9.774555892E0
2.668793878E0,-8.330863714E-2,6.916369498E-2,9.766532898E0,9.767133090E0
2.670793878E0,-7.673895359E-2,6.114790961E-2,9.747350693E0,9.747844555E0
2.672793878E0,-7.520666718E-2,6.711426377E-2,9.737352371E0,9.737874078E0
2.674793878E0,-7.607815415E-2,8.015787601E-2,9.739257812E0,9.739884800E0
2.676793878E0,-8.434294164E-2,9.650548548E-2,9.739842415E0,9.740685669E0
2.678793878E0,-7.339664549E-2,9.474334866E-2,9.734622955E0,9.735360674E0
2.680793878E0,-5.963477865E-2,8.708190173E-2,9.730543137E0,9.731115522E0
2.682793878E0,-5.216486752E-2,7.449797541E-2,9.740646362E0,9.741070920E0
2.684793878E0,-3.863283992E-2,5.514325202E-2,9.746000290E0,9.746232858E0
2.686939191E0,-2.076251805E-2,3.918829188E-2,9.742696762E0,9.742797699E0
2.688793878E0,2.794512175E-2,2.195004001E-2,9.744698524E0,9.744763315E0
2.690793878E0,3.703351319E-2,2.127008885E-2,9.736864090E0,9.736957749E0
2.692793878E0,4.162080213E-2,2.024536952E-2,9.723648071E0,9.723758223E0
2.694793878E0,5.048892647E-2,1.668279804E-2,9.731549263E0,9.731694534E0
2.696793878E0,5.382165685E-2,4.692635266E-4,9.753116608E0,9.753265123E0
2.698795441E0,5.845683068E-2,-1.095586643E-2,9.757147789E0,9.757329051E0
2.700793878E0,6.378152966E-2,-1.847365871E-2,9.758373260E0,9.758599185E0
2.702793878E0,6.115749106E-2,-3.133531287E-2,9.762050629E0,9.762292488E0
2.704793878E0,4.855440930E-2,-5.017289147E-2,9.780773163E0,9.781022365E0
2.706795441E0,4.783615097E-2,-6.362830102E-2,9.762616158E0,9.762940699E0
2.708793878E0,5.108268559E-2,-8.115386218E-2,9.730322838E0,9.730795338E0
2.710793878E0,5.167644843E-2,-1.003457829E-1,9.717700958E0,9.718356427E0
2.712793878E0,4.900452122E-2,-1.138873920E-1,9.710805893E0,9.711597339E0
2.714793878E0,4.414907843E-2,-1.251114011E-1,9.705719948E0,9.706626691E0
2.716793878E0,3.533841670E-2,-1.228800043E-1,9.723226547E0,9.724067194E0
2.718793878E0,3.226426244E-2,-1.197100803E-1,9.740847588E0,9.741636578E0
2.720793878E0,2.862507664E-2,-1.198824719E-1,9.757826805E0,9.758605185E0
2.722793878E0,2.756205015E-2,-1.134755835E-1,9.766599655E0,9.767297743E0
2.724793878E0,3.296336904E-2,-1.027878672E-1,9.766715050E0,9.767311544E0
2.726793878E0,4.586332664E-2,-9.199480712E-2,9.769942284E0,9.770483034E0
2.728793878E0,4.665820301E-2,-9.202353656E-2,9.767251015E0,9.767795949E0
2.730825128E0,4.701254144E-2,-7.943003625E-2,9.765258789E0,9.765694984E0
2.732795441E0,4.301901534E-2,-6.817728281E-2,9.763736725E0,9.764069521E0
2.734793878E0,3.287717700E-2,-6.645346433E-2,9.760116577E0,9.760398177E0
2.736793878E0,3.240791336E-2,-6.409756839E-2,9.761993408E0,9.762257632E0
2.738793878E0,1.667322218E-2,-6.813897938E-2,9.757119179E0,9.757371346E0
2.740970441E0,-1.080263779E-2,-6.363788247E-2,9.747628212E0,9.747841927E0
2.742793878E0,-3.077985719E-2,-5.838979036E-2,9.743204117E0,9.743427694E0
2.744793878E0,-4.717535153E-2,-5.484637246E-2,9.739353180E0,9.739621861E0
2.746795441E0,-5.298847333E-2,-3.977248073E-2,9.726875305E0,9.727100947E0
2.748793878E0,-5.612966418E-2,-2.584780194E-2,9.712798119E0,9.712994695E0
2.750793878E0,-6.681738049E-2,-2.131797187E-2,9.700913429E0,9.701166960E0
2.752793878E0,-7.263050228E-2,-1.654872112E-2,9.698460579E0,9.698746654E0
2.754793878E0,-8.971552551E-2,-1.076433063E-2,9.703920364E0,9.704341048E0
2.756793878E0,-9.803777188E-2,-4.558559973E-3,9.713161469E0,9.713657287E0
2.758793878E0,-1.047032326E-1,1.075475384E-2,9.726502419E0,9.727071899E0
2.760793878E0,-1.167891622E-1,1.332133822E-2,9.739420891E0,9.740130207E0
2.762793878E0,-1.282525957E-1,1.057279482E-2,9.750281334E0,9.751130529E0
2.764793878E0,-1.384327412E-1,1.229662076E-2,9.752933502E0,9.753923658E0
2.766795441E0,-1.487086415E-1,2.626918070E-2,9.755050659E0,9.756219436E0
2.768793878E0,-1.645965725E-1,3.371993452E-2,9.760327339E0,9.761773345E0
2.770793878E0,-1.797758192E-1,2.950614132E-2,9.762625694E0,9.764325394E0
2.772793878E0,-1.955488175E-1,3.722504899E-2,9.770603180E0,9.772630738E0
2.774795441E0,-2.009788603E-1,3.990655392E-2,9.778436661E0,9.780583243E0
2.776795441E0,-2.015821934E-1,3.975332528E-2,9.783914566E0,9.786071732E0
2.778795441E0,-2.099810690E-1,4.019385949E-2,9.789593697E0,9.791927917E0
2.780793878E0,-2.128732651E-1,4.298070818E-2,9.795100212E0,9.797507363E0
2.782793878E0,-2.068781704E-1,3.746446967E-2,9.804917336E0,9.807171158E0
2.784795441E0,-2.107089013E-1,2.744712867E-2,9.813746452E0,9.816046608E0
2.786793878E0,-2.161102295E-1,5.784391426E-3,9.809964180E0,9.812346014E0
2.788793878E0,-2.137926370E-1,-1.583046094E-2,9.811199188E0,9.813541023E0
2.790793878E0,-2.038423270E-1,-3.058832139E-2,9.810337067E0,9.812502265E0
2.792793878E0,-2.147981972E-1,-5.382165685E-2,9.814206123E0,9.816703972E0
2.794818878E0,-2.467847317E-1,-7.629841566E-2,9.819712639E0,9.823109511E0
2.796793878E0,-2.645592988E-1,-9.458054602E-2,9.814014435E0,9.818035263E0
2.798793878E0,-2.700276375E-1,-9.762597084E-2,9.808891296E0,9.813093000E0
2.800793878E0,-2.616766691E-1,-9.543287754E-2,9.797648430E0,9.801606851E0
2.802793878E0,-2.441128045E-1,-9.666828811E-2,9.793855667E0,9.797374375E0
2.804793878E0,-2.073378563E-1,-9.544245899E-2,9.780113220E0,9.782776336E0
2.806793878E0,-1.684943438E-1,-7.624095678E-2,9.773591042E0,9.775340653E0
2.808793878E0,-1.384423226E-1,-6.627149880E-2,9.778455734E0,9.779660257E0
2.810793878E0,-1.128052026E-1,-5.983588845E-2,9.782028198E0,9.782861597E0
2.812793878E0,-7.777324319E-2,-4.577713832E-2,9.772987366E0,9.773404027E0
2.814793878E0,-3.794331104E-2,-3.366247565E-2,9.755471230E0,9.755603096E0
2.816793878E0,-1.511220075E-2,-2.831861749E-2,9.742044449E0,9.742097329E0
2.818793878E0,3.859453136E-3,-2.729390003E-2,9.723465919E0,9.723504993E0
2.820972003E0,2.813665755E-2,-2.805046737E-2,9.705700874E0,9.705782192E0
2.823078253E0,4.302858934E-2,-4.344997555E-2,9.689804077E0,9.689997029E0
2.825067316E0,4.606444016E-2,-5.894524604E-2,9.684420586E0,9.684709523E0
2.826793878E0,5.119761080E-2,-8.092401922E-2,9.686365128E0,9.686838456E0
2.828793878E0,8.641152829E-2,-1.001829728E-1,9.680437088E0,9.681341116E0
2.830793878E0,1.349850893E-1,-1.269309968E-1,9.680188179E0,9.681961353E0
2.832793878E0,2.003563643E-1,-1.467166692E-1,9.679728508E0,9.682913427E0
2.834793878E0,2.596272230E-1,-1.469848305E-1,9.685263634E0,9.689857713E0
2.836793878E0,3.239067793E-1,-1.592718810E-1,9.703565598E0,9.710276435E0
2.838793878E0,3.745489120E-1,-2.070697248E-1,9.725573540E0,9.734985641E0
2.840793878E0,3.539683521E-1,-2.646167576E-1,9.742849350E0,9.752867736E0
2.842793878E0,2.094543427E-1,-3.969011903E-1,9.747723579E0,9.758048814E0
2.844793878E0,2.705447935E-2,-6.239576936E-1,9.736577034E0,9.756586877E0
2.846795441E0,-4.283705354E-2,-7.991462350E-1,9.731443405E0,9.764295185E0
2.848793878E0,-5.387911573E-2,-8.998846412E-1,9.743146896E0,9.784764012E0
2.850793878E0,-2.228522860E-2,-9.478261471E-1,9.756687164E0,9.802643289E0
2.852793878E0,1.323514618E-2,-9.559952021E-1,9.765690804E0,9.812380897E0
2.854793878E0,6.353253871E-2,-9.362956285E-1,9.765383720E0,9.810372322E0
2.856793878E0,1.428284943E-1,-9.151692390E-1,9.765192032E0,9.809021874E0
2.858793878E0,1.982686371E-1,-8.976820111E-1,9.791863441E0,9.834924153E0
2.860793878E0,2.115612328E-1,-8.548257351E-1,9.814263344E0,9.853692210E0
2.862793878E0,2.432029992E-1,-8.061851859E-1,9.801115036E0,9.837222077E0
2.864793878E0,2.436339706E-1,-7.581382990E-1,9.781769753E0,9.814130154E0
2.866795441E0,2.440266162E-1,-7.136061788E-1,9.763669968E0,9.792754158E0
2.868793878E0,2.350531518E-1,-6.615371108E-1,9.756840706E0,9.782066341E0
2.870793878E0,1.956158578E-1,-6.052254438E-1,9.755997658E0,9.776709758E0
2.872793878E0,1.230236590E-1,-5.438477397E-1,9.760806084E0,9.776719316E0
2.874793878E0,4.526956379E-2,-4.824220538E-1,9.762385368E0,9.774402716E0
2.876793878E0,-3.675578162E-2,-4.255549908E-1,9.763257980E0,9.772597118E0
2.878793878E0,-8.637322485E-2,-3.951199055E-1,9.780783653E0,9.789142401E0
2.880793878E0,-1.290187389E-1,-3.974758089E-1,9.810864449E0,9.819760388E0
2.882793878E0,-1.902528405E-1,-3.959435225E-1,9.813085556E0,9.822912783E0
2.884793878E0,-2.280620784E-1,-3.869796097E-1,9.815566063E0,9.825838522E0
2.886793878E0,-2.387497872E-1,-4.102991223E-1,9.826972008E0,9.838431057E0
2.888793878E0,-2.397074699E-1,-4.617361724E-1,9.850837708E0,9.864566058E0
2.890793878E0,-2.437871993E-1,-5.176838636E-1,9.851776123E0,9.868379885E0
2.892793878E0,-2.447065711E-1,-5.641122460E-1,9.834183693E0,9.853388901E0
2.894793878E0,-2.314426899E-1,-6.467505097E-1,9.831109047E0,9.855077728E0
2.896795441E0,-2.336644977E-1,-7.331811786E-1,9.816973686E0,9.847087188E0
2.898793878E0,-2.491980940E-1,-7.950473428E-1,9.800635338E0,9.835987647E0
2.900970441E0,-2.756300569E-1,-8.443104029E-1,9.790503502E0,9.830706526E0
2.902793878E0,-2.983750105E-1,-8.784708977E-1,9.781348228E0,9.825248696E0
2.904793878E0,-2.743755281E-1,-9.186648130E-1,9.763237953E0,9.810200931E0
2.906939191E0,-1.965065002E-1,-9.931436181E-1,9.738300323E0,9.790783536E0
2.908793878E0,-1.116176844E-1,-1.044676423E0,9.730381012E0,9.786936292E0
2.910793878E0,-9.954132885E-2,-1.064308882E0,9.737103462E0,9.795603387E0
2.912793878E0,-7.218039036E-2,-1.080378771E0,9.732985497E0,9.793029918E0
2.914793878E0,-6.945100427E-2,-1.088317871E0,9.725716591E0,9.786665542E0
2.916793878E0,-8.311710507E-2,-1.096304893E0,9.729116440E0,9.791041802E0
2.918793878E0,-1.121348366E-1,-1.131231546E0,9.737659454E0,9.803788588E0
2.920970441E0,-1.341997981E-1,-1.176826835E0,9.728417397E0,9.800256937E0
2.922793878E0,-1.678431034E-1,-1.212912083E0,9.709243774E0,9.786150505E0
2.924793878E0,-1.934993714E-1,-1.231098533E0,9.682286263E0,9.762157183E0
2.926793878E0,-2.220095396E-1,-1.244525194E0,9.668552399E0,9.750847998E0
2.928795441E0,-2.640804350E-1,-1.246095777E0,9.670525551E0,9.754053393E0
2.930795441E0,-2.893919349E-1,-1.241412759E0,9.675889015E0,9.759491870E0
2.932795441E0,-3.186011910E-1,-1.225419402E0,9.685761452E0,9.768169446E0
2.934795441E0,-3.456748426E-1,-1.215172291E0,9.697206497E0,9.779158892E0
2.936793878E0,-3.783508837E-1,-1.199753642E0,9.709397316E0,9.790554348E0
2.938793878E0,-4.064205289E-1,-1.193739414E0,9.726962090E0,9.808362908E0
2.940793878E0,-4.225766063E-1,-1.179891348E0,9.725668907E0,9.806087409E0
2.942793878E0,-4.015172124E-1,-1.160297275E0,9.712375641E0,9.789675502E0
2.944793878E0,-3.750852048E-1,-1.149647832E0,9.701917648E0,9.776992641E0
2.946793878E0,-3.520625532E-1,-1.130925179E0,9.695884705E0,9.767963964E0
2.948793878E0,-3.352361023E-1,-1.115793705E0,9.704628944E0,9.774313366E0
2.950793878E0,-3.160058856E-1,-1.095261097E0,9.717748642E0,9.784380167E0
2.952795441E0,-2.807057798E-1,-1.073579192E0,9.733942986E0,9.796990051E0
2.954795441E0,-2.317874581E-1,-1.067737341E0,9.747943878E0,9.808985590E0
2.956828253E0,-1.816815883E-1,-1.077515244E0,9.756984711E0,9.817983395E0
2.958795441E0,-1.478084475E-1,-1.078003645E0,9.762136459E0,9.822588633E0
2.960793878E0,-1.174786910E-1,-1.081623673E0,9.754120827E0,9.814610747E0
2.962793878E0,-5.928043276E-2,-1.087245226E0,9.744266510E0,9.804914389E0
2.964795441E0,-9.624690749E-3,-1.086680293E0,9.732324600E0,9.792809036E0
2.966795441E0,3.407428041E-2,-1.093786240E0,9.734029770E0,9.795349149E0
2.968793878E0,1.067622453E-1,-1.121482372E0,9.749898911E0,9.814766918E0
2.970793878E0,1.433552206E-1,-1.154474497E0,9.749514580E0,9.818675910E0
2.972793878E0,1.679197252E-1,-1.189247966E0,9.745627403E0,9.819356458E0
2.974793878E0,2.113026530E-1,-1.224107385E0,9.745282173E0,9.824134177E0
2.976793878E0,2.447736114E-1,-1.249294400E0,9.748566628E0,9.831337748E0
2.978793878E0,2.438733876E-1,-1.275678635E0,9.752771378E0,9.838870858E0
2.980970441E0,2.304275483E-1,-1.298950195E0,9.745406151E0,9.834292527E0
2.982793878E0,2.212912738E-1,-1.312692881E0,9.746402740E0,9.836894775E0
2.984793878E0,2.080944330E-1,-1.337650061E0,9.742218018E0,9.835823447E0
2.986793878E0,1.872457266E-1,-1.362674356E0,9.736145973E0,9.832826693E0
2.988795441E0,1.867190152E-1,-1.378102541E0,9.731098175E0,9.829969598E0
2.990795441E0,2.093298435E-1,-1.387181282E0,9.731568336E0,9.832167268E0
2.992793878E0,2.091861814E-1,-1.398778796E0,9.740714073E0,9.842857900E0
2.994793878E0,2.010267526E-1,-1.404189706E0,9.743969917E0,9.846680163E0
2.996793878E0,1.757248193E-1,-1.406325340E0,9.753795624E0,9.856224391E0
2.998793878E0,1.707736254E-1,-1.418229342E0,9.766217232E0,9.870133591E0
3.000793878E0,1.774103343E-1,-1.442573667E0,9.772949219E0,9.880436713E0
3.002793878E0,1.663970202E-1,-1.449392200E0,9.770133972E0,9.878458561E0
3.004793878E0,1.096735895E-1,-1.469618440E0,9.762769699E0,9.873372213E0
3.006793878E0,5.278735608E-2,-1.487373948E0,9.757664680E0,9.870516085E0
3.008793878E0,-6.196194328E-3,-1.502514720E0,9.767241478E0,9.882135142E0
3.010793878E0,-6.618531048E-2,-1.519494534E0,9.771110535E0,9.888773696E0
3.012793878E0,-1.228608564E-1,-1.547066092E0,9.775467873E0,9.897892726E0
3.014793878E0,-1.671344340E-1,-1.570079207E0,9.773198128E0,9.899923448E0
3.016795441E0,-2.062078118E-1,-1.588504910E0,9.764885902E0,9.895396212E0
3.018793878E0,-2.355128378E-1,-1.599451303E0,9.769874573E0,9.902734973E0
3.020793878E0,-2.587174475E-1,-1.611268997E0,9.767068863E0,9.902462152E0
3.022793878E0,-2.988538146E-1,-1.624580860E0,9.768333435E0,9.907013408E0
3.024793878E0,-3.431082368E-1,-1.652066112E0,9.782813072E0,9.927259305E0
3.026793878E0,-3.622139990E-1,-1.661394000E0,9.798739433E0,9.945185945E0
3.028793878E0,-3.840491176E-1,-1.668499947E0,9.798317909E0,9.946779361E0
3.030793878E0,-4.080102742E-1,-1.675251722E0,9.787055969E0,9.937776676E0
3.032793878E0,-4.309275746E-1,-1.669045925E0,9.785600662E0,9.936266562E0
3.034793878E0,-4.578001201E-1,-1.661767483E0,9.783004761E0,9.933691875E0
3.036793878E0,-4.848545790E-1,-1.647038341E0,9.777900696E0,9.927495217E0
3.038795441E0,-4.982429445E-1,-1.627760291E0,9.786031723E0,9.932988799E0
3.040795441E0,-5.093711615E-1,-1.609937906E0,9.792448044E0,9.936971256E0
3.042793878E0,-5.148491263E-1,-1.606193304E0,9.803662300E0,9.947699284E0
3.044793878E0,-5.103001595E-1,-1.595227957E0,9.802963257E0,9.945011166E0
3.046793878E0,-5.027153492E-1,-1.575921059E0,9.798079491E0,9.936730429E0
3.048793878E0,-5.064694285E-1,-1.561785698E0,9.794056892E0,9.930721840E0
3.050793878E0,-5.269350410E-1,-1.565702558E0,9.778780937E0,9.917340453E0
3.052793878E0,-5.462802052E-1,-1.567033648E0,9.769683838E0,9.909628591E0
3.054793878E0,-5.619286895E-1,-1.570586801E0,9.776722908E0,9.918004717E0
3.056793878E0,-5.669948459E-1,-1.570443153E0,9.780707359E0,9.922197907E0
3.058793878E0,-5.744934678E-1,-1.593188047E0,9.777431488E0,9.923026625E0
3.060970441E0,-5.800288916E-1,-1.602956295E0,9.769520760E0,9.917128530E0
3.062793878E0,-5.933789611E-1,-1.613912225E0,9.757894516E0,9.908244882E0
3.064793878E0,-6.065566540E-1,-1.644682527E0,9.763525009E0,9.919642745E0
3.066793878E0,-5.949208140E-1,-1.653454781E0,9.780571938E0,9.937174191E0
3.068793878E0,-6.110289693E-1,-1.651654363E0,9.783771515E0,9.941001136E0
3.070793878E0,-6.157886982E-1,-1.663998842E0,9.781424522E0,9.941043887E0
3.072793878E0,-5.821166635E-1,-1.678440809E0,9.788483620E0,9.948388560E0
3.074793878E0,-5.310435295E-1,-1.678862095E0,9.800703049E0,9.957628503E0
3.076793878E0,-4.833701849E-1,-1.675376058E0,9.803662300E0,9.957526107E0
3.078793878E0,-4.631727040E-1,-1.668873549E0,9.811332703E0,9.963027516E0
3.080793878E0,-4.459057152E-1,-1.657716513E0,9.817577362E0,9.966528042E0
3.082793878E0,-4.340017438E-1,-1.660254359E0,9.818344116E0,9.967180305E0
3.084793878E0,-4.290505052E-1,-1.663452983E0,9.811074257E0,9.960338259E0
3.086793878E0,-4.266754687E-1,-1.672244549E0,9.792600632E0,9.943514515E0
3.088793878E0,-4.190906286E-1,-1.672407389E0,9.776626587E0,9.927487640E0
3.090793878E0,-4.362331331E-1,-1.667982936E0,9.760499954E0,9.911600566E0
3.092793878E0,-4.550228417E-1,-1.676908493E0,9.757089615E0,9.910593606E0
3.094793878E0,-4.684973657E-1,-1.690028667E0,9.762654305E0,9.918926643E0
3.096793878E0,-4.697806835E-1,-1.690440416E0,9.759934425E0,9.916380523E0
3.098793878E0,-4.584034383E-1,-1.680011392E0,9.761639595E0,9.915754110E0
3.100793878E0,-4.597058594E-1,-1.676257253E0,9.761207581E0,9.914753718E0
3.102793878E0,-4.456662834E-1,-1.684857130E0,9.767691612E0,9.921953508E0
3.104795441E0,-4.351892471E-1,-1.708617330E0,9.758488655E0,9.916494526E0
3.106793878E0,-4.195503294E-1,-1.720961809E0,9.740694046E0,9.900447087E0
3.108795441E0,-3.847290576E-1,-1.720205188E0,9.737073898E0,9.895338824E0
3.110795441E0,-3.322960436E-1,-1.713989854E0,9.739938736E0,9.895180062E0
3.112795441E0,-3.020620644E-1,-1.698427439E0,9.733234406E0,9.884925354E0
3.114795441E0,-2.894781530E-1,-1.690239429E0,9.746077538E0,9.895793768E0
3.116795441E0,-2.652009130E-1,-1.681629777E0,9.753413200E0,9.900872653E0
3.118795441E0,-2.333484739E-1,-1.671066642E0,9.739229202E0,9.884305777E0
3.120795441E0,-2.222297937E-1,-1.665023685E0,9.734077454E0,9.877952917E0
3.122795441E0,-2.324195206E-1,-1.663692474E0,9.735561371E0,9.879425423E0
3.124795441E0,-2.302072793E-1,-1.663769007E0,9.737860680E0,9.881652358E0
3.126939191E0,-2.274108529E-1,-1.662552834E0,9.749035835E0,9.892395935E0
3.128795441E0,-2.217509598E-1,-1.642182946E0,9.767318726E0,9.906889189E0
3.130793878E0,-2.304850221E-1,-1.616948128E0,9.765700340E0,9.901340704E0
3.132793878E0,-2.362885624E-1,-1.607112646E0,9.762530327E0,9.896749048E0
3.134793878E0,-2.231587470E-1,-1.602611542E0,9.763210297E0,9.896385142E0
3.136793878E0,-2.265681028E-1,-1.589864850E0,9.765632629E0,9.896796653E0
3.138793878E0,-2.316150665E-1,-1.582892895E0,9.756840706E0,9.887119703E0
3.140970441E0,-2.333197445E-1,-1.588504910E0,9.748106956E0,9.879442048E0
3.142793878E0,-2.338752002E-1,-1.577472448E0,9.747924805E0,9.877507526E0
3.144793878E0,-2.405502349E-1,-1.571812630E0,9.765537262E0,9.894148643E0
3.146793878E0,-2.257732302E-1,-1.571678519E0,9.791384697E0,9.919292374E0
3.148795441E0,-2.092819512E-1,-1.571467757E0,9.802273750E0,9.929646546E0
3.150793878E0,-1.948401332E-1,-1.570347309E0,9.801880836E0,9.928787503E0
3.152795441E0,-1.956828982E-1,-1.585603118E0,9.793960571E0,9.923411345E0
3.154795441E0,-1.966405809E-1,-1.601031423E0,9.792668343E0,9.924632104E0
3.156793878E0,-1.887780130E-1,-1.609344125E0,9.784527779E0,9.917792572E0
3.158795441E0,-1.804078817E-1,-1.609104633E0,9.788167000E0,9.921188333E0
3.160793878E0,-1.759642512E-1,-1.609889865E0,9.793500900E0,9.926498309E0
3.162793878E0,-1.771709323E-1,-1.607543588E0,9.789363861E0,9.922057787E0
3.164793878E0,-1.799577773E-1,-1.605829358E0,9.782343864E0,9.914904145E0
3.166793878E0,-1.780711561E-1,-1.600983500E0,9.766417503E0,9.898372005E0
3.168793878E0,-1.502122134E-1,-1.582605600E0,9.760988235E0,9.889595317E0
3.170793878E0,-1.299859881E-1,-1.577127695E0,9.766016006E0,9.893396624E0
3.172795441E0,-1.074804962E-1,-1.567742467E0,9.765451431E0,9.891077300E0
3.174795441E0,-9.075939655E-2,-1.557313204E0,9.767595291E0,9.891379047E0
3.176795441E0,-7.484274358E-2,-1.548454762E0,9.772489548E0,9.894688754E0
3.178795441E0,-6.738241762E-2,-1.530584455E0,9.767633438E0,9.887056799E0
3.180793878E0,-8.011956513E-2,-1.509228110E0,9.762855530E0,9.879146559E0
3.182793878E0,-7.722736895E-2,-1.497496605E0,9.772768021E0,9.887135831E0
3.184795441E0,-6.935523450E-2,-1.479128122E0,9.772795677E0,9.884339406E0
3.186793878E0,-7.621222734E-2,-1.466352820E0,9.775908470E0,9.885564491E0
3.188795441E0,-1.052778363E-1,-1.469915390E0,9.776799202E0,9.887241138E0
3.190793878E0,-1.344583780E-1,-1.457953811E0,9.776205063E0,9.885236153E0
3.192793878E0,-1.795459688E-1,-1.443349242E0,9.765039444E0,9.872765020E0
3.194793878E0,-2.073570192E-1,-1.416792870E0,9.758679390E0,9.863169998E0
3.196793878E0,-2.118006647E-1,-1.382680178E0,9.760030746E0,9.859759843E0
3.198793878E0,-2.360491306E-1,-1.350990653E0,9.765537262E0,9.861369730E0
3.200793878E0,-2.596655190E-1,-1.328599930E0,9.761294365E0,9.854718242E0
3.202793878E0,-2.561221421E-1,-1.309925199E0,9.750837326E0,9.841764635E0
3.204795441E0,-2.475796044E-1,-1.290005445E0,9.737572670E0,9.825768734E0
3.206793878E0,-2.692327499E-1,-1.278273821E0,9.744112968E0,9.831287188E0
3.208793878E0,-2.632951438E-1,-1.265153646E0,9.748442650E0,9.833721177E0
3.210793878E0,-2.413738370E-1,-1.244065523E0,9.761600494E0,9.843515864E0
3.212793878E0,-2.209177911E-1,-1.225563169E0,9.768314362E0,9.847374026E0
3.214793878E0,-1.982686371E-1,-1.204130292E0,9.757731438E0,9.833746134E0
3.216793878E0,-1.798045486E-1,-1.187801719E0,9.759504318E0,9.833164655E0
3.218793878E0,-1.587451547E-1,-1.178598523E0,9.770727158E0,9.842835145E0
3.220970441E0,-1.320450157E-1,-1.177564263E0,9.781300545E0,9.852813498E0
3.222795441E0,-9.390059114E-2,-1.183501840E0,9.789238930E0,9.860968145E0
3.224793878E0,-5.706819147E-2,-1.193040252E0,9.793827057E0,9.866389929E0
3.226793878E0,-3.433285281E-2,-1.203172445E0,9.791911125E0,9.865613319E0
3.228793878E0,9.193734732E-4,-1.214664698E0,9.783416748E0,9.858532063E0
3.230795441E0,1.730529033E-2,-1.237984300E0,9.782123566E0,9.860164606E0
3.232795441E0,5.615839362E-2,-1.257712364E0,9.788463593E0,9.869093862E0
3.234793878E0,8.239884675E-2,-1.280179739E0,9.800980568E0,9.884577372E0
3.236793878E0,9.438900650E-2,-1.305835962E0,9.793319702E0,9.880446732E0
