"Time (s)","Linear Acceleration x (m/s^2)","Linear Acceleration y (m/s^2)","Linear Acceleration z (m/s^2)","Absolute acceleration (m/s^2)"
3.145882000E-3,4.969999939E-2,1.353500009E0,6.608999968E-1,1.507057122E0
1.300994500E-2,4.969999939E-2,1.353500009E0,6.608999968E-1,1.507057122E0
2.359744500E-2,4.969999939E-2,1.353500009E0,6.608999968E-1,1.507057122E0
3.357869500E-2,1.569999941E-2,1.999999949E-4,-2.071999907E-1,2.077940474E-1
4.358025700E-2,6.309999526E-2,-4.729999974E-2,-1.582999974E-1,1.768552758E-1
5.357557000E-2,5.939999968E-2,-1.659999974E-2,-1.291999966E-1,1.431661939E-1
6.357713200E-2,5.819999799E-2,-5.439999700E-2,-6.129999831E-2,1.005200937E-1
7.357557000E-2,1.092999950E-1,-5.089999735E-2,-5.350000039E-2,1.319073488E-1
8.357557000E-2,1.307999939E-1,-6.570000201E-2,-3.700000048E-2,1.509772456E-1
9.357557000E-2,7.669999450E-2,-3.139999881E-2,-2.929999866E-2,8.790528428E-2
1.035755700E-1,8.029999584E-2,2.939999849E-2,1.499999966E-2,8.681848440E-2
1.135786950E-1,1.063999981E-1,-2.400000021E-2,-5.469999835E-2,1.220206926E-1
1.235755700E-1,4.389999807E-2,-8.379999548E-2,-1.626999974E-1,1.882045117E-1
1.335786950E-1,-3.499999875E-3,-7.369999588E-2,-1.527999938E-1,1.696813999E-1
1.435755700E-1,3.709999844E-2,-2.730000019E-2,-8.449999988E-2,9.623902470E-2
1.535771320E-1,5.339999869E-2,1.339999959E-2,-2.740000002E-2,6.149699058E-2
1.635786950E-1,4.289999977E-2,-4.699999932E-3,-6.709999591E-2,7.978038249E-2
1.735771320E-1,-1.279999968E-2,-2.919999883E-2,-1.257999986E-1,1.297771921E-1
1.835771320E-1,1.569999941E-2,-5.199999735E-2,-1.845999956E-1,1.924256950E-1
1.935771320E-1,6.099999882E-3,-3.599999845E-2,-1.551000029E-1,1.593399535E-1
2.035771320E-1,4.659999907E-2,-2.950000018E-2,-1.260000020E-1,1.375420315E-1
2.136161950E-1,3.109999932E-2,2.659999952E-2,-7.779999822E-2,8.790682372E-2
2.236333820E-1,-3.039999865E-2,-9.899999946E-3,-1.171999946E-1,1.214825447E-1
2.336130700E-1,-9.989999980E-2,-5.549999699E-2,-1.367999911E-1,1.782540244E-1
2.436130700E-1,-3.299999982E-3,-3.219999745E-2,-7.789999992E-2,8.435721560E-2
2.536130700E-1,4.319999740E-2,-6.809999794E-2,-6.819999963E-2,1.056176569E-1
2.636115070E-1,5.029999837E-2,-8.540000021E-2,-1.466999948E-1,1.770427585E-1
2.736318200E-1,1.789999940E-2,-2.510000020E-2,-1.860999912E-1,1.886362285E-1
2.836130700E-1,2.510000020E-2,2.489999868E-2,-1.763999909E-1,1.799082453E-1
2.936115070E-1,2.269999869E-2,8.429999650E-2,-1.469999999E-1,1.709701123E-1
3.036115070E-1,1.059999969E-2,7.479999959E-2,-7.849999517E-2,1.089479196E-1
3.136130700E-1,3.739999980E-2,2.549999952E-2,-2.950000018E-2,5.403017649E-2
3.236318200E-1,4.559999704E-2,-2.439999953E-2,-9.829999506E-2,1.110747889E-1
3.336130700E-1,5.200000014E-3,-6.699999794E-3,-1.571999937E-1,1.574286125E-1
3.436130700E-1,4.100000020E-3,3.969999775E-2,-1.670999974E-1,1.718002007E-1
3.536130700E-1,3.099999856E-3,5.629999936E-2,-1.671999991E-1,1.764515220E-1
3.636146320E-1,1.999999862E-3,4.360000044E-2,-1.475999951E-1,1.539178957E-1
3.736333820E-1,9.999999311E-4,4.069999978E-2,-1.280999929E-1,1.344139061E-1
3.836130700E-1,1.999999949E-4,1.860000007E-2,-1.379999965E-1,1.392479768E-1
3.936146320E-1,-9.999999747E-5,-2.699999837E-3,-1.968999952E-1,1.969185317E-1
4.036130700E-1,-1.040000003E-2,-6.209999695E-2,-2.458999902E-1,2.538333603E-1
4.136130700E-1,-5.040000007E-2,-7.099999487E-2,-1.870999932E-1,2.063675525E-1
4.236318200E-1,-6.099999696E-2,-3.949999809E-2,-8.899999410E-2,1.149010375E-1
4.336115070E-1,-2.190000005E-2,-7.799999788E-3,-5.959999934E-2,6.397350952E-2
4.436115070E-1,-1.899999916E-3,2.329999954E-2,-9.879999608E-2,1.015280218E-1
4.536115070E-1,-2.099999972E-2,4.419999942E-2,-1.281999946E-1,1.372220046E-1
4.636115070E-1,8.799999952E-3,7.419999689E-2,-1.378999949E-1,1.568422396E-1
4.736349450E-1,-2.999999851E-4,6.469999999E-2,-1.280999929E-1,1.435123276E-1
4.836115070E-1,-2.869999968E-2,3.549999744E-2,-8.879999816E-2,9.984677998E-2
4.936115070E-1,-7.599999756E-2,1.589999907E-2,-7.899999619E-2,1.107691699E-1
5.036786950E-1,-6.409999728E-2,5.699999630E-3,-4.949999973E-2,8.118835890E-2
5.136130700E-1,-6.219999865E-2,4.999999888E-3,-6.899999827E-2,9.303139036E-2
5.236333820E-1,-2.239999920E-2,4.309999943E-2,-1.081999987E-1,1.186027388E-1
5.336130700E-1,-3.299999982E-2,3.240000084E-2,-1.376999915E-1,1.452585546E-1
5.436130700E-1,-2.429999970E-2,2.209999971E-2,-1.572999954E-1,1.606928391E-1
5.536130700E-1,-6.799999624E-3,3.189999983E-2,-1.377999932E-1,1.416075143E-1
5.636130700E-1,9.999999747E-5,6.099999696E-2,-8.889999986E-2,1.078156742E-1
5.736333820E-1,6.599999964E-3,5.999999866E-2,-5.959999934E-2,8.482758844E-2
5.836130700E-1,1.349999942E-2,3.869999945E-2,-4.999999702E-2,6.465245273E-2
5.936130700E-1,1.169999968E-2,2.679999918E-2,-5.009999871E-2,5.800982520E-2
6.036146320E-1,1.099999994E-3,2.479999885E-2,-7.949999720E-2,8.328565001E-2
6.136130700E-1,-8.599999361E-3,-1.549999975E-2,-8.940000087E-2,9.114038697E-2
6.236318200E-1,-1.799999923E-2,-5.489999801E-2,-6.969999522E-2,9.053230963E-2
6.336115070E-1,2.300000051E-3,-6.379999965E-2,-5.009999871E-2,8.115257129E-2
6.436115070E-1,3.260000050E-2,-2.329999954E-2,-4.019999877E-2,5.675993227E-2
6.536115070E-1,1.429999992E-2,-4.140000045E-2,-4.999999702E-2,6.647142045E-2
6.636115070E-1,1.579999924E-2,-2.049999870E-2,-5.969999731E-2,6.506903719E-2
6.736333820E-1,1.740000024E-2,9.699999355E-3,-9.879999608E-2,1.007883387E-1
6.836130700E-1,9.499999695E-3,1.960000023E-2,-8.889999986E-2,9.152933944E-2
6.936130700E-1,-1.740000024E-2,1.929999888E-2,-5.939999968E-2,6.483525219E-2
7.036130700E-1,4.999999888E-3,3.839999810E-2,-9.849999845E-2,1.058386014E-1
7.136115070E-1,-1.999999862E-3,4.789999872E-2,-1.278999895E-1,1.365899601E-1
7.236349450E-1,9.499999695E-3,3.819999844E-2,-1.473999918E-1,1.525655513E-1
7.336146320E-1,-8.999999613E-3,3.849999979E-2,-1.473999918E-1,1.526106403E-1
7.436146320E-1,9.999999311E-4,9.200000204E-3,-1.472999901E-1,1.475904031E-1
7.536130700E-1,1.030000020E-2,-3.979999945E-2,-1.669999957E-1,1.719858382E-1
7.636146320E-1,-7.999999798E-4,-4.949999973E-2,-1.473999918E-1,1.554916317E-1
7.736333820E-1,6.999999750E-3,-2.999999851E-4,-8.869999647E-2,8.897628544E-2
7.836115070E-1,2.510000020E-2,2.939999849E-2,-5.929999799E-2,7.078742602E-2
7.936130700E-1,4.799999762E-3,2.049999870E-2,-3.969999775E-2,4.493750957E-2
8.036115070E-1,5.200000014E-3,-7.499999832E-3,-4.949999973E-2,5.033428226E-2
8.136130700E-1,-3.199999919E-3,-2.549999952E-2,-4.939999804E-2,5.568527437E-2
8.236333820E-1,-1.139999926E-2,-1.420000009E-2,-4.930000007E-2,5.255558955E-2
8.336146320E-1,9.300000034E-3,2.599999867E-2,-2.960000001E-2,4.048024126E-2
8.436130700E-1,-9.999999747E-5,5.590000004E-2,-9.999999776E-3,5.678749862E-2
8.536146320E-1,1.399999950E-2,5.419999734E-2,-3.009999916E-2,6.355823823E-2
8.636161950E-1,4.319999740E-2,5.719999969E-2,-8.889999986E-2,1.141984663E-1
8.736333820E-1,1.370000001E-2,3.070000000E-2,-1.084999964E-1,1.135888604E-1
8.836130700E-1,3.599999938E-3,2.429999970E-2,-1.280999929E-1,1.304341142E-1
8.936130700E-1,3.700000001E-3,2.719999850E-2,-1.574999988E-1,1.598742617E-1
9.036130700E-1,-2.510000020E-2,-2.779999934E-2,-1.377999932E-1,1.427994681E-1
9.136115070E-1,-3.339999914E-2,-6.379999965E-2,-1.081999987E-1,1.299739960E-1
9.236318200E-1,-2.999999933E-2,-9.879999608E-2,-4.919999838E-2,1.143769165E-1
9.336130700E-1,-1.730000041E-2,-6.650000066E-2,-1.960000023E-2,7.145418190E-2
9.436130700E-1,-3.299999982E-3,-3.409999982E-2,-5.859999731E-2,6.787974420E-2
9.536130700E-1,8.799999952E-3,-3.000000026E-3,-4.869999737E-2,4.957952947E-2
9.636130700E-1,4.050000012E-2,1.779999956E-2,-4.859999940E-2,6.571947912E-2
9.736318200E-1,2.169999853E-2,3.799999878E-2,-6.819999963E-2,8.103165920E-2
9.836115070E-1,-4.999999888E-3,2.239999920E-2,-7.789999992E-2,8.121065170E-2
9.936115070E-1,-1.480000000E-2,2.379999869E-2,-1.072999984E-1,1.108998178E-1
1.003613070E0,-4.699999932E-3,6.599999964E-3,-4.839999974E-2,4.907351601E-2
1.013613070E0,6.000000052E-3,-2.049999870E-2,-9.099999443E-3,2.321766434E-2
1.023633382E0,1.899999939E-2,-1.779999956E-2,6.999999750E-4,2.604476840E-2
1.033613070E0,3.119999915E-2,-1.640000008E-2,-2.840000018E-2,4.526543892E-2
1.043614632E0,3.489999846E-2,3.799999831E-3,-9.690000117E-2,1.030633791E-1
1.053611507E0,1.649999991E-2,4.100000020E-3,-1.458999962E-1,1.468872659E-1
1.063613070E0,7.100000046E-3,1.409999933E-2,-1.458999962E-1,1.467515890E-1
1.073633382E0,3.590000048E-2,2.419999987E-2,-7.719999552E-2,8.851152092E-2
1.083613070E0,3.509999812E-2,-1.449999958E-2,-7.729999721E-2,8.612519622E-2
1.093614632E0,1.370000001E-2,-3.599999845E-2,-1.066999957E-1,1.134397592E-1
1.103614632E0,5.099999718E-3,-6.599999964E-2,-1.065999940E-1,1.254813479E-1
1.113611507E0,4.539999738E-2,-1.719999872E-2,-7.710000128E-2,9.111207338E-2
1.123633382E0,3.749999776E-2,2.499999944E-3,-7.710000128E-2,8.577243164E-2
1.133614632E0,1.909999922E-2,-1.699999906E-2,-9.659999609E-2,9.992681914E-2
1.143611507E0,3.039999865E-2,-3.619999811E-2,-9.649999440E-2,1.074562641E-1
1.153611507E0,2.109999955E-2,-1.649999991E-2,-5.729999766E-2,6.325147990E-2
1.163614632E0,4.089999944E-2,2.259999886E-2,-3.769999743E-2,6.004048391E-2
1.173631820E0,3.119999915E-2,4.179999977E-2,-1.809999906E-2,5.521132034E-2
1.183614632E0,2.190000005E-2,1.169999968E-2,-3.769999743E-2,4.514188521E-2
1.193613070E0,3.209999949E-2,-8.200000040E-3,-6.709999591E-2,7.483354474E-2
1.203613070E0,1.329999976E-2,1.169999968E-2,-8.659999818E-2,8.839309741E-2
1.213613070E0,-5.699999630E-3,2.209999971E-2,-6.700000167E-2,7.078064853E-2
1.223633382E0,-5.099999718E-3,1.389999967E-2,-4.729999974E-2,4.956319162E-2
1.233614632E0,2.449999936E-2,5.099999718E-3,-3.749999776E-2,4.508336498E-2
1.243613070E0,3.500000015E-2,-4.199999850E-3,-3.739999980E-2,5.139455218E-2
1.253614632E0,1.609999873E-2,5.099999718E-3,-8.649999648E-2,8.813324769E-2
1.263613070E0,1.740000024E-2,1.399999950E-2,-1.255999953E-1,1.275700545E-1
1.273633382E0,-1.119999960E-2,3.799999831E-3,-1.353999972E-1,1.359155592E-1
1.283614632E0,8.700000122E-3,-5.899999756E-3,-1.158000007E-1,1.162761376E-1
1.293613070E0,3.819999844E-2,-1.529999916E-2,-9.619999677E-2,1.046315881E-1
1.303613070E0,-1.300000004E-3,-2.410000004E-2,-5.689999834E-2,6.180703692E-2
1.313613070E0,2.730000019E-2,-3.309999779E-2,-7.899999619E-3,4.362693959E-2
1.323634945E0,3.669999912E-2,-4.169999808E-2,1.159999985E-2,5.674803761E-2
1.333611507E0,-1.219999976E-2,-4.099999741E-2,1.159999985E-2,4.432154982E-2
1.343611507E0,2.719999850E-2,-2.070000023E-2,1.159999985E-2,3.609556655E-2
1.353613070E0,6.650000066E-2,-2.039999887E-2,1.159999985E-2,7.051928841E-2
1.363611507E0,8.659999818E-2,8.799999952E-3,-7.649999857E-2,1.158846386E-1
1.373634945E0,6.740000099E-2,2.809999883E-2,-1.352999955E-1,1.537480369E-1
1.383611507E0,4.910000041E-2,2.809999883E-2,-1.352999955E-1,1.466509760E-1
1.393614632E0,2.099999972E-2,-1.119999960E-2,-1.351999938E-1,1.372788342E-1
1.403613070E0,4.199999850E-3,-3.099999949E-2,-9.589999914E-2,1.008734346E-1
1.413613070E0,-1.289999951E-2,-1.179999951E-2,-7.609999925E-2,7.808239149E-2
1.423633382E0,-8.499999531E-3,-3.189999983E-2,-7.589999586E-2,8.276877040E-2
1.433613070E0,-5.799999926E-3,-2.229999937E-2,-8.559999615E-2,8.864699268E-2
1.443613070E0,-1.279999968E-2,-2.259999886E-2,-1.149000004E-1,1.177990239E-1
1.453613070E0,-2.300000051E-3,2.649999969E-2,-1.344999969E-1,1.371050296E-1
1.463613070E0,1.609999873E-2,3.680000082E-2,-9.529999644E-2,1.034192407E-1
1.473633382E0,1.439999975E-2,4.690000042E-2,-5.619999766E-2,7.460167404E-2
1.483613070E0,1.139999926E-2,5.649999902E-2,-4.649999738E-2,7.405713759E-2
1.493613070E0,-1.960000023E-2,7.100000046E-3,-4.659999907E-2,5.105026859E-2
1.503613070E0,-1.109999977E-2,-3.199999919E-3,-1.152999997E-1,1.158772623E-1
1.513613070E0,-1.119999960E-2,-2.279999852E-2,-1.054999977E-1,1.085151116E-1
1.523633382E0,9.300000034E-3,-5.109999701E-2,-6.619999558E-2,8.414356250E-2
1.533611507E0,5.900000036E-2,-4.050000012E-2,-6.619999558E-2,9.748686817E-2
1.543614632E0,5.929999799E-2,-2.979999967E-2,-5.629999936E-2,8.702999293E-2
1.553613070E0,2.889999934E-2,-2.939999849E-2,-2.689999901E-2,4.922580440E-2
1.563613070E0,2.599999867E-2,9.399999864E-3,1.200000010E-2,3.013901012E-2
1.573633382E0,2.389999852E-2,1.860000007E-2,1.189999934E-2,3.253889851E-2
1.583614632E0,1.189999934E-2,-1.179999951E-2,1.999999862E-3,1.687749899E-2
1.593614632E0,1.899999916E-3,-2.180000022E-2,1.179999951E-2,2.486141584E-2
1.603611507E0,3.289999813E-2,2.749999985E-2,-7.599999662E-3,4.354790309E-2
1.613613070E0,4.439999908E-2,3.790000081E-2,-2.719999850E-2,6.440194017E-2
1.623631820E0,3.759999946E-2,1.939999871E-2,-3.680000082E-2,5.607459290E-2
1.633613070E0,3.940000013E-2,9.999999776E-3,-4.649999738E-2,6.176252716E-2
1.643613070E0,4.140000045E-2,-1.909999922E-2,-8.559999615E-2,9.698520170E-2
1.653613070E0,3.219999745E-2,-3.879999742E-2,-8.559999615E-2,9.934605667E-2
1.663613070E0,2.239999920E-2,-2.939999849E-2,-7.580000162E-2,8.433125234E-2
1.673633382E0,3.139999881E-2,-2.999999851E-4,-1.052999943E-1,1.098823859E-1
1.683614632E0,5.959999934E-2,-1.030000020E-2,-1.151999980E-1,1.301126030E-1
1.693611507E0,4.849999771E-2,1.950000040E-2,-7.599999756E-2,9.224152764E-2
1.703611507E0,2.719999850E-2,1.099999994E-3,-2.699999884E-2,3.834122919E-2
1.713614632E0,2.649999969E-2,-5.689999834E-2,-2.699999884E-2,6.832905481E-2
1.723633382E0,4.589999840E-2,-4.639999941E-2,-2.699999884E-2,7.063122352E-2
1.733613070E0,6.560000032E-2,-1.709999889E-2,-2.699999884E-2,7.297102125E-2
1.743613070E0,7.609999925E-2,-2.789999917E-2,-2.699999884E-2,8.543195993E-2
1.753613070E0,5.739999935E-2,-1.899999939E-2,-8.579999954E-2,1.049638024E-1
1.763613070E0,5.949999765E-2,-4.019999877E-2,-1.250000000E-1,1.441571699E-1
1.773633382E0,3.099999949E-2,-3.109999932E-2,-1.347000003E-1,1.416767448E-1
1.783613070E0,2.600000007E-3,-1.219999976E-2,-1.347000003E-1,1.352763471E-1
1.793614632E0,-1.659999974E-2,-3.170000017E-2,-9.549999982E-2,1.019838221E-1
1.803611507E0,-3.599999845E-2,-7.039999962E-2,-6.599999964E-2,1.029959212E-1
1.813600570E0,2.699999837E-3,-3.709999844E-2,-3.639999777E-2,5.204478573E-2
1.823631820E0,2.379999869E-2,-1.999999955E-2,-2.679999918E-2,4.104485200E-2
1.833611507E0,4.529999942E-2,-1.399999950E-2,-4.639999941E-2,6.634040909E-2
1.843611507E0,5.729999766E-2,-1.809999906E-2,-3.659999743E-2,7.035950191E-2
1.853611507E0,6.899999827E-2,1.769999973E-2,-3.659999743E-2,8.008651300E-2
1.863611507E0,6.159999967E-2,5.339999869E-2,-4.629999772E-2,9.375398449E-2
1.873631820E0,4.369999841E-2,8.039999753E-2,-7.569999993E-2,1.187616919E-1
1.883611507E0,2.559999935E-2,9.809999913E-2,-9.529999644E-2,1.391440229E-1
1.893613070E0,1.599999890E-2,2.840000018E-2,-6.589999795E-2,7.352121942E-2
1.903613070E0,-4.399999976E-3,-1.399999950E-3,-1.689999923E-2,1.751941705E-2
1.913613070E0,-1.539999992E-2,-2.199999988E-2,1.239999942E-2,2.957904626E-2
1.923633382E0,1.999999862E-3,5.599999800E-3,2.199999988E-2,2.278947108E-2
1.933614632E0,1.099999994E-2,-2.529999986E-2,-1.719999872E-2,3.251045905E-2
1.943611507E0,4.010000080E-2,-1.709999889E-2,-4.659999907E-2,6.381206735E-2
1.953614632E0,4.050000012E-2,2.199999988E-3,-3.680000082E-2,5.476613981E-2
1.963611507E0,2.199999988E-2,3.229999915E-2,2.199999988E-2,4.484740722E-2
1.973634945E0,2.309999987E-2,3.240000084E-2,3.189999983E-2,5.099980429E-2
1.983611507E0,3.480000049E-2,1.139999926E-2,-2.679999918E-2,4.537884940E-2
1.993614632E0,-3.299999982E-3,-1.970000006E-2,-8.559999615E-2,8.789959808E-2
2.003611507E0,-2.499999944E-3,-4.230000079E-2,-9.539999813E-2,1.043872584E-1
2.013613070E0,1.719999872E-2,-1.509999949E-2,-9.549999982E-2,9.820437825E-2
2.023633382E0,8.200000040E-3,-7.999999449E-3,-1.347000003E-1,1.351862791E-1
2.033614632E0,8.700000122E-3,-9.099999443E-3,-1.347000003E-1,1.352870654E-1
2.043613070E0,9.599999525E-3,-9.399999864E-3,-1.247999966E-1,1.255211502E-1
2.053613070E0,2.960000001E-2,6.999999750E-4,-7.580000162E-2,8.137745539E-2
2.063613070E0,5.939999968E-2,2.129999921E-2,-4.629999772E-2,7.826710495E-2
2.073633382E0,5.969999731E-2,-1.759999990E-2,-4.629999772E-2,7.757280106E-2
2.083613070E0,5.069999769E-2,-1.850000024E-2,-7.569999993E-2,9.296897205E-2
2.093613070E0,4.109999910E-2,-9.800000116E-3,-8.549999446E-2,9.537032547E-2
2.103614632E0,3.109999932E-2,1.709999889E-2,-1.052000001E-1,1.110254923E-1
2.113611507E0,-8.299999870E-3,5.699999630E-3,-1.247999966E-1,1.252055077E-1
2.123634945E0,-8.599999361E-3,-5.499999970E-3,-8.559999615E-2,8.620655039E-2
2.133613070E0,-8.399999700E-3,-1.569999941E-2,-6.599999964E-2,6.835970984E-2
2.143614632E0,-7.499999832E-3,4.100000020E-3,-6.599999964E-2,6.655118294E-2
2.153611507E0,-1.649999991E-2,4.399999976E-3,-8.549999446E-2,8.718864060E-2
2.163611507E0,-5.899999756E-3,-4.900000058E-3,-1.442999989E-1,1.445036666E-1
2.173634945E0,-3.549999744E-2,-1.439999975E-2,-1.835999936E-1,1.875541721E-1
2.183613070E0,-1.759999990E-2,-4.259999841E-2,-1.247999966E-1,1.330396896E-1
2.193613070E0,1.979999989E-2,-5.150000006E-2,-6.599999964E-2,8.602493798E-2
2.203613070E0,2.709999867E-2,-5.029999837E-2,-1.709999889E-2,5.963983338E-2
2.213614632E0,4.529999942E-2,-3.009999916E-2,1.219999976E-2,5.573993085E-2
2.223631820E0,9.290000051E-2,9.200000204E-3,1.209999993E-2,9.413532864E-2
2.233611507E0,6.300000101E-2,3.830000013E-2,-1.719999872E-2,7.570819040E-2
2.243611507E0,1.118999943E-1,7.679999620E-2,-1.349000037E-1,1.913579346E-1
2.253611507E0,1.018999964E-1,6.729999930E-2,-7.609999925E-2,1.438892250E-1
2.263614632E0,6.300000101E-2,8.799999952E-3,-1.719999872E-2,6.589597926E-2
2.273633382E0,2.449999936E-2,-3.089999966E-2,-4.659999907E-2,6.104604706E-2
2.283614632E0,-6.239999831E-2,-7.229999453E-2,-1.053999960E-1,1.422329363E-1
2.293613070E0,-6.179999933E-2,-5.439999700E-2,-1.053999960E-1,1.337451261E-1
2.303613070E0,-3.240000084E-2,-2.699999884E-2,-1.152999997E-1,1.227715355E-1
2.313613070E0,-3.499999875E-3,-7.799999788E-3,-1.251000017E-1,1.253917877E-1
2.323633382E0,1.420000009E-2,-4.649999738E-2,-1.741999984E-1,1.808577596E-1
2.333613070E0,2.180000022E-2,1.359999925E-2,-1.252999902E-1,1.279073396E-1
2.343613070E0,4.629999772E-2,5.590000004E-2,-6.659999490E-2,9.850918289E-2
2.353613070E0,6.219999865E-2,3.839999810E-2,-4.719999805E-2,8.701286975E-2
2.363613070E0,6.689999998E-2,1.899999916E-3,-8.100000210E-3,6.741535433E-2
2.373634945E0,5.409999937E-2,-1.620000042E-2,3.089999966E-2,6.437437320E-2
2.383611507E0,6.109999865E-2,-2.410000004E-2,5.040000007E-2,8.278997430E-2
2.393614632E0,2.149999887E-2,-5.249999836E-2,1.119999960E-2,5.782680840E-2
2.403611507E0,-6.799999624E-3,-3.139999881E-2,1.119999960E-2,3.402410780E-2
2.413611507E0,3.280000016E-2,-1.099999994E-3,-8.200000040E-3,3.382735596E-2
2.423633382E0,5.279999971E-2,9.499999695E-3,-8.200000040E-3,5.427089427E-2
2.433614632E0,4.309999943E-2,-9.800000116E-3,-3.759999946E-2,5.802938835E-2
2.443611507E0,4.360000044E-2,9.800000116E-3,-3.759999946E-2,5.840171230E-2
2.453611507E0,2.459999919E-2,-9.999999747E-5,-3.759999946E-2,4.493250404E-2
2.463613070E0,6.300000008E-3,-1.049999986E-2,-8.100000210E-3,1.468162118E-2
2.473633382E0,-1.239999942E-2,2.819999866E-2,1.599999960E-3,3.084736472E-2
2.483613070E0,-2.070000023E-2,3.739999980E-2,-1.779999956E-2,4.630431922E-2
2.493616195E0,-5.889999866E-2,2.719999850E-2,-6.679999828E-2,9.311975908E-2
2.503611507E0,-5.749999732E-2,-2.219999954E-2,-9.619999677E-2,1.142520418E-1
2.513611507E0,-7.499999832E-3,-7.129999995E-2,-1.058999971E-1,1.278856887E-1
2.523633382E0,4.309999943E-2,-2.239999920E-2,-9.600000083E-2,1.075888938E-1
2.533613070E0,5.409999937E-2,4.600000009E-2,-8.619999886E-2,1.116837040E-1
2.543614632E0,5.559999868E-2,5.489999801E-2,-9.589999914E-2,1.237019784E-1
2.553611507E0,5.629999936E-2,2.469999902E-2,-1.154999956E-1,1.308435282E-1
2.563613070E0,4.619999975E-2,3.899999894E-3,-1.253999919E-1,1.336967013E-1
2.573633382E0,3.519999981E-2,-2.569999918E-2,-9.600000083E-2,1.054302144E-1
2.583613070E0,4.250000045E-2,-5.529999733E-2,-4.710000008E-2,8.415907408E-2
2.593613070E0,5.040000007E-2,-5.509999767E-2,-7.999999449E-3,7.510106351E-2
2.603613070E0,5.819999799E-2,-4.479999840E-2,-7.999999449E-3,7.388017064E-2
2.613614632E0,7.739999890E-2,-3.429999948E-2,1.150000002E-2,8.543711017E-2
2.623634945E0,6.859999895E-2,-2.319999970E-2,3.109999932E-2,7.881249774E-2
2.633613070E0,8.929999918E-2,-2.290000021E-2,2.139999904E-2,9.464068798E-2
2.643613070E0,1.011999995E-1,-1.420000009E-2,-2.749999985E-2,1.058268864E-1
2.653614632E0,6.289999932E-2,-5.799999926E-3,-6.669999659E-2,9.186370044E-2
2.663613070E0,4.380000010E-2,-8.599999361E-3,-8.630000055E-2,9.716012604E-2
2.673633382E0,1.429999992E-2,-4.999999655E-4,-1.058999971E-1,1.068622916E-1
2.683613070E0,4.100000020E-3,-3.170000017E-2,-1.158000007E-1,1.201305131E-1
2.693614632E0,-5.899999756E-3,-2.209999971E-2,-9.619999677E-2,9.888204773E-2
2.703611507E0,4.279999807E-2,-1.169999968E-2,-6.679999828E-2,8.019332640E-2
2.713611507E0,3.280000016E-2,-1.300000004E-3,-7.899999619E-3,3.376299756E-2
2.723620882E0,3.269999847E-2,8.999999613E-3,1.159999985E-2,3.584480282E-2
2.733613070E0,2.869999968E-2,6.000000052E-3,1.090000011E-2,3.128098439E-2
2.743611507E0,3.070000000E-2,5.499999970E-3,-5.759999901E-2,6.550190750E-2
2.753613070E0,1.299999934E-2,-4.389999807E-2,-1.064999998E-1,1.159243709E-1
2.763613070E0,4.999999888E-3,-3.449999914E-2,-1.063999981E-1,1.119652157E-1
2.773619320E0,-1.129999943E-2,-1.239999942E-2,-8.659999818E-2,8.821003150E-2
2.783613070E0,1.569999941E-2,-1.799999923E-2,-8.669999987E-2,8.992986117E-2
2.793613070E0,4.619999975E-2,-1.889999956E-2,-6.700000167E-2,8.355028536E-2
2.803614632E0,4.659999907E-2,9.599999525E-3,-4.739999771E-2,6.716010488E-2
2.813614632E0,4.649999738E-2,1.850000024E-2,-1.799999923E-2,5.318364163E-2
2.823634945E0,5.579999834E-2,-2.499999944E-3,-1.809999906E-2,5.871541348E-2
2.833613070E0,4.609999806E-2,-2.349999920E-2,-1.809999906E-2,5.481851648E-2
2.843616195E0,4.649999738E-2,-3.489999846E-2,-8.299999870E-3,5.872946148E-2
2.853611507E0,3.749999776E-2,-3.579999879E-2,-1.809999906E-2,5.491356582E-2
2.863614632E0,2.889999934E-2,-4.649999738E-2,-8.200000040E-3,5.535973011E-2
2.873631820E0,4.919999838E-2,1.899999916E-3,-2.779999934E-2,5.654281390E-2
2.883611507E0,5.009999871E-2,1.079999935E-2,-6.700000167E-2,8.435431276E-2
2.893611507E0,5.049999803E-2,1.999999955E-2,-1.257999986E-1,1.370251416E-1
2.903611507E0,7.029999793E-2,9.699999355E-3,-1.454000026E-1,1.617941298E-1
2.913611507E0,6.989999861E-2,-1.040000003E-2,-1.159999967E-1,1.358313993E-1
2.923634945E0,5.979999900E-2,-1.599999960E-3,-8.669999987E-2,1.053351312E-1
2.933613070E0,5.020000041E-2,-2.219999954E-2,-9.649999440E-2,1.110185973E-1
2.943613070E0,3.089999966E-2,-6.269999593E-2,-8.669999987E-2,1.113687095E-1
2.953613070E0,1.150000002E-2,-5.339999869E-2,-1.799999923E-2,5.751356217E-2
2.963613070E0,2.799999900E-3,-1.449999958E-2,1.599999960E-3,1.485429188E-2
2.973633382E0,2.329999954E-2,-4.380000010E-2,1.599999960E-3,4.963758643E-2
2.983613070E0,4.449999705E-2,-5.339999869E-2,-1.779999956E-2,7.175409105E-2
2.993613070E0,5.499999970E-2,-2.379999869E-2,-3.739999980E-2,7.064134688E-2
3.003611507E0,5.559999868E-2,3.529999778E-2,-6.679999828E-2,9.380666004E-2
3.013613070E0,4.759999737E-2,4.669999704E-2,-1.064999998E-1,1.256538874E-1
3.023634945E0,3.799999878E-2,3.830000013E-2,-1.064999998E-1,1.193865146E-1
3.033613070E0,1.799999923E-2,2.969999984E-2,-1.261000037E-1,1.307948810E-1
3.043614632E0,3.619999811E-2,-1.799999923E-2,-1.064999998E-1,1.139152746E-1
3.053613070E0,5.529999733E-2,-5.579999834E-2,-7.710000128E-2,1.100733379E-1
3.063613070E0,-3.999999724E-3,-8.339999616E-2,-3.790000081E-2,9.169498034E-2
3.073633382E0,2.499999851E-2,-8.249999583E-2,5.029999837E-2,9.980650817E-2
3.083613070E0,3.480000049E-2,-7.329999655E-2,2.080000006E-2,8.376496601E-2
3.093613070E0,4.539999738E-2,-3.500000015E-2,-3.790000081E-2,6.872095630E-2
3.103614632E0,4.739999771E-2,-2.669999935E-2,-8.679999411E-2,1.024396834E-1
3.113613070E0,5.900000036E-2,1.200000010E-2,-1.260000020E-1,1.396459830E-1
3.123631820E0,4.289999977E-2,3.159999847E-2,-1.159999967E-1,1.276517493E-1
3.133614632E0,6.399999838E-3,2.199999988E-2,-6.689999998E-2,7.071470844E-2
3.143611507E0,1.069999952E-2,-1.750000007E-2,-4.710000008E-2,5.137265810E-2
3.153611507E0,-1.609999873E-2,-2.799999900E-2,-4.690000042E-2,5.694576317E-2
3.163614632E0,2.569999918E-2,-1.950000040E-2,-8.609999716E-2,9.194536141E-2
3.173631820E0,3.659999743E-2,1.960000023E-2,-7.620000094E-2,8.677649431E-2
3.183611507E0,3.610000014E-2,1.040000003E-2,-8.599999547E-2,9.384758511E-2
3.193613070E0,3.409999982E-2,8.999999845E-4,-7.629999518E-2,8.357816253E-2
3.203613070E0,7.899999619E-2,1.300000004E-3,-6.669999659E-2,1.034000916E-1
3.213613070E0,7.629999518E-2,-1.799999923E-2,-4.719999805E-2,9.150698909E-2
3.223631820E0,6.350000203E-2,-1.799999923E-2,-1.789999940E-2,6.838611122E-2
3.233614632E0,6.229999661E-2,1.099999994E-2,1.129999943E-2,6.426491705E-2
3.243614632E0,5.260000005E-2,-8.999999613E-3,4.079999775E-2,6.717439851E-2
3.253613070E0,3.399999812E-2,-1.919999905E-2,1.139999926E-2,4.067677247E-2
3.263613070E0,3.649999946E-2,-4.899999872E-2,1.699999906E-3,6.112397103E-2
3.273634945E0,4.809999838E-2,-6.849999726E-2,1.159999985E-2,8.450100275E-2
3.283613070E0,6.059999764E-2,-5.909999833E-2,1.899999916E-3,8.466864541E-2
3.293611507E0,6.229999661E-2,-3.070000000E-2,-4.699999839E-2,8.386166840E-2
3.303613070E0,2.589999884E-2,-2.359999903E-2,-9.589999914E-2,1.021008312E-1
3.313613070E0,-1.119999960E-2,3.499999875E-3,-1.252999902E-1,1.258482321E-1
3.323631820E0,1.500000013E-3,7.999999798E-4,-1.447999924E-1,1.448099714E-1
3.333614632E0,1.319999993E-2,1.950000040E-2,-1.349000037E-1,1.369397714E-1
3.343613070E0,4.479999840E-2,9.300000034E-3,-1.151999980E-1,1.239539003E-1
3.353611507E0,2.609999850E-2,9.300000034E-3,-1.052999943E-1,1.088842906E-1
3.363613070E0,3.920000046E-2,-1.999999949E-4,-9.579999745E-2,1.035099973E-1
3.373631820E0,2.979999967E-2,-4.939999804E-2,-8.599999547E-2,1.035586742E-1
3.383611507E0,3.920000046E-2,-6.969999522E-2,-9.579999745E-2,1.247892979E-1
3.393614632E0,1.960000023E-2,-8.959999681E-2,-1.153999940E-1,1.474092197E-1
3.403599007E0,4.889999703E-2,-5.069999769E-2,-6.639999896E-2,9.680216598E-2
3.413613070E0,4.649999738E-2,-7.699999958E-3,-8.599999361E-3,4.791137385E-2
3.423633382E0,8.089999855E-2,1.179999951E-2,1.119999960E-2,8.251963248E-2
3.433611507E0,9.479999542E-2,-7.799999788E-3,4.079999775E-2,1.035012992E-1
3.443613070E0,6.949999928E-2,-2.779999934E-2,5.079999939E-2,9.046396963E-2
3.453613070E0,5.299999937E-2,-3.879999742E-2,-7.799999788E-3,6.614589730E-2
3.463611507E0,5.519999936E-2,7.899999619E-3,1.999999862E-3,5.579829678E-2
3.473634945E0,3.680000082E-2,6.399999838E-3,-1.750000007E-2,4.124863708E-2
3.483611507E0,3.810000047E-2,-3.390000015E-2,-6.650000066E-2,8.380375966E-2
3.493614632E0,4.919999838E-2,-2.379999869E-2,-8.599999547E-2,1.018973945E-1
3.503614632E0,5.109999701E-2,-2.699999837E-3,-9.569999576E-2,1.085218360E-1
3.513611507E0,6.229999661E-2,2.769999951E-2,-1.054999977E-1,1.256138092E-1
3.523634945E0,5.359999835E-2,1.889999956E-2,-7.599999756E-2,9.490084001E-2
3.533614632E0,5.189999938E-2,-1.999999949E-4,-6.669999659E-2,8.451354614E-2
3.543616195E0,3.439999744E-2,-4.039999843E-2,-5.680000037E-2,7.772875748E-2
3.553614632E0,-3.199999919E-3,-6.089999899E-2,-6.659999490E-2,9.030287480E-2
3.563613070E0,-3.179999813E-2,-5.199999735E-2,-6.650000066E-2,9.020803563E-2
3.573633382E0,-3.099999949E-2,-4.189999774E-2,1.999999862E-3,5.215946490E-2
3.583613070E0,-1.040000003E-2,-1.399999950E-3,3.150000051E-2,3.320195826E-2
3.593611507E0,-8.799999952E-3,-3.999999899E-4,1.200000010E-2,1.488623531E-2
3.603611507E0,3.209999949E-2,1.999999955E-2,1.209999993E-2,3.970919223E-2
3.613611507E0,6.269999593E-2,2.939999849E-2,1.219999976E-2,7.031706333E-2
3.623631820E0,6.399999559E-2,3.749999776E-2,-1.709999889E-2,7.612265911E-2
3.633614632E0,6.480000168E-2,1.630000025E-2,-6.610000134E-2,9.398904406E-2
3.643611507E0,3.610000014E-2,1.409999933E-2,-9.549999982E-2,1.030643971E-1
3.653614632E0,2.659999952E-2,-2.599999867E-2,-1.250000000E-1,1.304168697E-1
3.663599007E0,2.669999935E-2,-6.560000032E-2,-9.549999982E-2,1.188970141E-1
3.673631820E0,2.279999852E-2,-6.219999865E-2,-8.579999954E-2,1.083988915E-1
3.683611507E0,2.569999918E-2,-4.769999906E-2,-4.669999704E-2,7.153089956E-2
3.693611507E0,5.269999802E-2,-1.439999975E-2,-5.700000003E-2,7.895346596E-2
3.703614632E0,5.779999867E-2,-7.999999798E-4,-6.669999659E-2,8.826306924E-2
3.713611507E0,7.189999521E-2,-5.799999926E-3,-1.057999954E-1,1.280503351E-1
3.723633382E0,7.620000094E-2,-9.599999525E-3,-8.599999547E-2,1.153022088E-1
3.733611507E0,6.019999832E-2,-4.179999977E-2,-9.569999576E-2,1.205394913E-1
3.743611507E0,5.439999700E-2,-4.309999943E-2,-1.052999943E-1,1.261152585E-1
3.753611507E0,4.729999974E-2,-4.429999739E-2,-8.559999615E-2,1.073645150E-1
3.763611507E0,4.939999804E-2,-2.510000020E-2,-4.619999975E-2,7.214436772E-2
3.773633382E0,2.339999937E-2,1.099999994E-2,-4.659999907E-2,5.329277514E-2
3.783611507E0,6.379999965E-2,2.909999900E-2,-1.709999889E-2,7.217797351E-2
3.793613070E0,5.519999936E-2,1.769999973E-2,-7.299999706E-3,5.842619204E-2
3.803614632E0,2.789999917E-2,1.549999975E-2,1.229999959E-2,3.420453093E-2
3.813613070E0,4.010000080E-2,1.420000009E-2,3.199999779E-2,5.323203853E-2
3.823634945E0,5.399999768E-2,3.000000026E-3,6.159999967E-2,8.197292058E-2
3.833611507E0,3.739999980E-2,-1.740000024E-2,3.240000084E-2,5.245264577E-2
3.843613070E0,2.199999988E-3,-8.700000122E-3,6.199999899E-2,6.264606832E-2
3.853611507E0,2.389999852E-2,0.000000000E0,2.279999852E-2,3.303104391E-2
3.863611507E0,2.630000003E-2,2.730000019E-2,-3.579999879E-2,5.214038670E-2
3.873630257E0,2.730000019E-2,1.589999907E-2,-1.239999980E-1,1.279613202E-1
3.883614632E0,3.720000014E-2,4.600000102E-3,-1.534999907E-1,1.580102755E-1
3.893614632E0,3.700000048E-2,-5.099999718E-3,-1.339000016E-1,1.390115840E-1
3.903613070E0,7.519999892E-2,1.569999941E-2,-1.339000016E-1,1.543720838E-1
3.913613070E0,7.419999689E-2,-2.229999937E-2,-1.437000036E-1,1.632563033E-1
3.923633382E0,4.279999807E-2,-6.979999691E-2,-1.437999904E-1,1.654760304E-1
3.933611507E0,5.079999939E-2,-2.960000001E-2,-7.530000061E-2,9.553475823E-2
3.943613070E0,6.769999862E-2,-4.800000042E-2,-2.630000003E-2,8.705733659E-2
3.953644320E0,6.679999828E-2,-1.162000000E-1,-4.600000009E-2,1.417063153E-1
3.963613070E0,6.449999660E-2,-7.189999521E-2,-8.559999615E-2,1.290628460E-1
3.973634945E0,7.710000128E-2,-5.899999756E-3,-1.247999966E-1,1.468136892E-1
3.983613070E0,7.099999487E-2,3.130000085E-2,-1.147999987E-1,1.385630868E-1
3.993614632E0,6.439999491E-2,1.009999961E-2,-8.519999683E-2,1.072772520E-1
4.003611507E0,7.869999856E-2,-9.999999311E-4,-7.519999892E-2,1.088564633E-1
4.013611507E0,5.249999836E-2,3.649999946E-2,-3.590000048E-2,7.333014267E-2
4.023633382E0,2.620000020E-2,3.429999948E-2,-3.570000082E-2,5.601267743E-2
4.033613070E0,-2.099999925E-3,3.299999982E-3,-5.529999733E-2,5.543816108E-2
4.043616195E0,7.199999876E-3,-8.100000210E-3,-4.549999908E-2,4.677285449E-2
4.053613070E0,2.589999884E-2,-1.850000024E-2,-2.599999867E-2,4.109817368E-2
4.063613070E0,3.359999880E-2,1.199999941E-3,-3.590000048E-2,4.918546487E-2
4.073633382E0,8.169999719E-2,-7.999999449E-3,1.299999934E-2,8.311371436E-2
4.083613070E0,9.070000052E-2,2.699999837E-3,4.239999875E-2,1.001575758E-1
4.093613070E0,1.107999980E-1,-6.699999794E-3,5.219999701E-2,1.226636427E-1
4.103613070E0,1.127000004E-1,-2.709999867E-2,1.310000010E-2,1.166503751E-1
4.113611507E0,9.470000118E-2,-4.769999906E-2,-3.579999879E-2,1.119152360E-1
4.123634945E0,6.729999930E-2,-4.869999737E-2,-6.509999931E-2,1.055414116E-1
4.133611507E0,5.859999731E-2,-4.869999737E-2,-6.509999931E-2,1.002180589E-1
4.143613070E0,4.059999809E-2,-5.729999766E-2,-7.479999959E-2,1.025996565E-1
4.153613070E0,4.199999943E-2,-6.619999558E-2,-7.469999790E-2,1.082890994E-1
4.163613070E0,3.460000083E-2,-4.569999874E-2,-9.420000017E-2,1.102691705E-1
4.173633382E0,6.539999694E-2,-2.589999884E-2,-6.469999999E-2,9.557227390E-2
4.183613070E0,6.729999930E-2,-3.590000048E-2,-5.480000004E-2,9.392092389E-2
4.193613070E0,6.839999557E-2,2.249999903E-2,3.999999724E-3,7.211663711E-2
4.203614632E0,6.960000098E-2,-7.299999706E-3,-2.520000003E-2,7.438071076E-2
4.213614632E0,7.039999962E-2,-3.689999878E-2,-4.479999840E-2,9.124039518E-2
4.223631820E0,8.069999516E-2,-4.669999704E-2,-8.399999887E-2,1.254965288E-1
4.233613070E0,8.159999549E-2,-4.619999975E-2,-8.399999887E-2,1.258928078E-1
4.243614632E0,7.429999858E-2,-3.519999981E-2,-5.439999700E-2,9.858442802E-2
4.253611507E0,9.569999576E-2,-3.489999846E-2,-5.429999903E-2,1.154339160E-1
4.263611507E0,8.799999952E-2,-2.569999918E-2,-6.399999559E-2,1.118055871E-1
4.273633382E0,8.859999478E-2,-2.679999918E-2,-9.339999408E-2,1.314981290E-1
4.283611507E0,8.819999546E-2,-2.769999951E-2,-5.419999734E-2,1.071642146E-1
4.293611507E0,1.067999974E-1,-4.739999771E-2,-2.479999885E-2,1.194488977E-1
4.303613070E0,9.529999644E-2,-4.690000042E-2,4.399999976E-3,1.063064408E-1
4.313611507E0,1.032999977E-1,-3.659999743E-2,1.409999933E-2,1.104955172E-1
4.323631820E0,1.114999950E-1,-4.569999874E-2,-1.529999916E-2,1.214694560E-1
4.333614632E0,1.013999954E-1,-6.449999660E-2,-1.529999916E-2,1.211457742E-1
4.343609945E0,1.115999967E-1,-5.379999802E-2,-3.489999846E-2,1.287128934E-1
4.353613070E0,1.027999967E-1,-2.449999936E-2,-6.419999897E-2,1.236516444E-1
4.363614632E0,7.409999520E-2,-2.539999969E-2,-9.359999746E-2,1.220529754E-1
4.373633382E0,9.420000017E-2,-6.999999750E-3,-8.379999548E-2,1.262738265E-1
4.383613070E0,7.469999790E-2,1.069999952E-2,-1.131999940E-1,1.360471180E-1
4.393613070E0,6.509999931E-2,-1.030000020E-2,-1.230999976E-1,1.396341983E-1
4.403614632E0,2.620000020E-2,-3.089999966E-2,-9.359999746E-2,1.019912227E-1
4.413611507E0,7.100000046E-3,-3.130000085E-2,-8.379999548E-2,8.973594205E-2
4.423633382E0,-1.999999862E-3,-2.149999887E-2,-2.489999868E-2,3.295845696E-2
4.433611507E0,7.999999449E-3,-2.169999853E-2,1.420000009E-2,2.713908491E-2
4.443613070E0,-1.799999969E-3,-2.259999886E-2,3.379999846E-2,4.069938383E-2
4.453614632E0,7.699999958E-3,-1.439999975E-2,2.400000021E-2,2.902843437E-2
4.463613070E0,1.750000007E-2,-6.399999838E-3,-5.399999674E-3,1.940025765E-2
4.473633382E0,3.739999980E-2,-7.799999788E-3,4.299999680E-3,3.844593579E-2
4.483611507E0,6.700000167E-2,1.099999994E-3,-1.519999932E-2,6.871135425E-2
4.493613070E0,9.679999948E-2,1.059999969E-2,-2.499999851E-2,1.005365596E-1
4.503611507E0,7.739999890E-2,1.059999969E-2,-3.480000049E-2,8.552286161E-2
4.513613070E0,6.809999794E-2,1.019999944E-2,-5.429999903E-2,8.769344104E-2
4.523631820E0,5.889999866E-2,-6.999999750E-4,-8.370000124E-2,1.023493530E-1
4.533614632E0,4.949999973E-2,-2.199999988E-2,-9.349999577E-2,1.080578511E-1
4.543613070E0,5.989999697E-2,-1.379999984E-2,-7.389999926E-2,9.612314770E-2
4.553613070E0,6.059999764E-2,-1.519999932E-2,-6.409999728E-2,8.951094539E-2
4.563613070E0,5.169999972E-2,-5.549999699E-2,-5.419999734E-2,9.322434955E-2
4.573631820E0,4.289999977E-2,-6.619999558E-2,-6.399999559E-2,1.015817347E-1
4.583611507E0,5.379999802E-2,-5.709999800E-2,-8.359999955E-2,1.146464543E-1
4.593613070E0,5.499999970E-2,-5.779999867E-2,-7.369999588E-2,1.086164316E-1
4.603613070E0,7.599999756E-2,-2.899999917E-2,-4.419999942E-2,9.257774856E-2
4.613613070E0,8.760000020E-2,-4.919999838E-2,-4.900000058E-3,1.005903071E-1
4.623631820E0,9.999999404E-2,-3.059999831E-2,4.900000058E-3,1.046917795E-1
4.633613070E0,1.030000001E-1,-2.799999900E-3,-5.359999835E-2,1.161455976E-1
4.643611507E0,4.669999704E-2,-4.399999976E-3,-6.329999864E-2,7.878540189E-2
4.653613070E0,5.829999968E-2,-3.570000082E-2,1.509999949E-2,7.000992791E-2
4.663613070E0,1.193999946E-1,1.099999994E-2,-5.329999700E-2,1.312183234E-1
4.673633382E0,6.329999864E-2,1.850000024E-2,-1.611000001E-1,1.740757016E-1
4.683613070E0,1.630000025E-2,-2.190000005E-2,-1.708000004E-1,1.729680322E-1
4.693614632E0,7.629999518E-2,-4.160000011E-2,-1.314999908E-1,1.576213718E-1
4.703613070E0,8.659999818E-2,-4.109999910E-2,-8.240000159E-2,1.264062098E-1
4.713613070E0,7.689999789E-2,-6.979999691E-2,-5.299999937E-2,1.165960942E-1
4.723633382E0,8.659999818E-2,-4.979999736E-2,-5.299999937E-2,1.130866896E-1
4.733613070E0,6.629999727E-2,-2.070000023E-2,-5.299999937E-2,8.736806957E-2
4.743611507E0,5.570000038E-2,-1.999999862E-3,-7.270000130E-2,9.160666040E-2
4.753613070E0,4.519999772E-2,-1.279999968E-2,-1.021999940E-1,1.124798585E-1
4.763614632E0,6.419999897E-2,-1.359999925E-2,-1.119999960E-1,1.298098569E-1
4.773633382E0,6.409999728E-2,-1.420000009E-2,-1.315999925E-1,1.470680376E-1
4.783611507E0,3.489999846E-2,-3.390000015E-2,-1.119999960E-1,1.221115024E-1
4.793611507E0,4.479999840E-2,-4.339999706E-2,-8.259999752E-2,1.035053583E-1
4.803611507E0,8.389999717E-2,-5.260000005E-2,-3.359999880E-2,1.045702130E-1
4.813611507E0,7.349999994E-2,-5.209999904E-2,-2.379999869E-2,9.318315206E-2
4.823633382E0,6.260000169E-2,-6.140000001E-2,-1.399999950E-2,8.879594697E-2
4.833611507E0,8.129999787E-2,-2.199999988E-2,-1.409999933E-2,8.539613357E-2
4.843614632E0,8.079999685E-2,-3.199999779E-2,-8.269999921E-2,1.199663670E-1
4.853613070E0,7.109999657E-2,-3.219999745E-2,-1.121999994E-1,1.366780495E-1
4.863613070E0,7.199999690E-2,-3.229999915E-2,-1.120999977E-1,1.370901126E-1
4.873633382E0,6.379999965E-2,-2.600000007E-3,-8.259999752E-2,1.044028714E-1
4.883613070E0,5.619999766E-2,-1.200000010E-2,-5.309999734E-2,7.824352662E-2
4.893613070E0,3.849999979E-2,-4.160000011E-2,-6.279999763E-2,8.459698396E-2
4.903611507E0,6.879999489E-2,-3.229999915E-2,-4.309999943E-2,8.737470568E-2
4.913611507E0,6.799999624E-2,-2.319999970E-2,-5.299999937E-2,8.928179775E-2
4.923633382E0,5.579999834E-2,-1.379999984E-2,-5.309999734E-2,7.825400647E-2
4.933613070E0,8.209999651E-2,-3.799999831E-3,-3.370000049E-2,8.882870853E-2
4.943613070E0,8.899999410E-2,-1.269999985E-2,-1.420000009E-2,9.101609170E-2
4.953611507E0,7.779999822E-2,-1.119999960E-2,5.299999844E-3,7.878051607E-2
4.963611507E0,7.779999822E-2,-9.499999695E-3,1.509999949E-2,7.981916877E-2
4.973631820E0,9.869999439E-2,-2.779999934E-2,2.499999851E-2,1.055439661E-1
4.983611507E0,8.119999617E-2,-2.769999951E-2,1.529999916E-2,8.714826060E-2
4.993611507E0,9.279999882E-2,-4.839999974E-2,-3.359999880E-2,1.099243361E-1
5.003611507E0,7.419999689E-2,-4.999999702E-2,-1.021999940E-1,1.358325367E-1
5.013611507E0,4.459999874E-2,-5.159999803E-2,-1.413999945E-1,1.569894204E-1
5.023631820E0,4.389999807E-2,-5.240000039E-2,-1.218999997E-1,1.397590061E-1
5.033611507E0,4.289999977E-2,-7.209999859E-2,-6.309999526E-2,1.049782319E-1
5.043613070E0,7.129999995E-2,-5.240000039E-2,-1.409999933E-2,8.960055812E-2
5.053611507E0,9.030000120E-2,-4.239999875E-2,3.480000049E-2,1.056545794E-1
5.063613070E0,1.102999970E-1,-3.399999812E-3,5.399999674E-3,1.104844303E-1
5.073631820E0,1.115999967E-1,-3.799999831E-3,-5.329999700E-2,1.237331360E-1
5.083613070E0,1.229999959E-1,-2.359999903E-2,-8.259999752E-2,1.500290590E-1
5.093611507E0,1.147999987E-1,-3.999999724E-3,-8.249999583E-2,1.414259135E-1
5.103613070E0,9.649999440E-2,-3.370000049E-2,-9.219999611E-2,1.376545613E-1
5.113613070E0,8.819999546E-2,-6.379999965E-2,-1.019999981E-1,1.491766696E-1
5.123631820E0,7.970000058E-2,-7.479999959E-2,-1.215000004E-1,1.634300466E-1
5.133611507E0,8.999999613E-2,-7.620000094E-2,-1.410999894E-1,1.838903109E-1
5.143613070E0,9.929999709E-2,-5.749999732E-2,-1.116999984E-1,1.601362818E-1
5.153613070E0,1.072999984E-1,-4.809999838E-2,-9.219999611E-2,1.494246927E-1
5.163614632E0,1.244999990E-1,-3.799999878E-2,-3.350000083E-2,1.344116800E-1
5.173633382E0,1.321000010E-1,-4.729999974E-2,1.529999916E-2,1.411445720E-1
5.183613070E0,1.406999975E-1,-3.689999878E-2,6.430000067E-2,1.590364402E-1
5.193613070E0,1.213999987E-1,-3.680000082E-2,6.430000067E-2,1.422205675E-1
5.203613070E0,1.032999977E-1,-1.750000007E-2,1.529999916E-2,1.058830936E-1
5.213613070E0,9.519999474E-2,-2.799999900E-2,-5.309999734E-2,1.125462068E-1
5.223633382E0,8.679999411E-2,-3.830000013E-2,-3.339999914E-2,1.005817525E-1
5.233611507E0,9.799999744E-2,-1.929999888E-2,-3.339999914E-2,1.053187989E-1
5.243611507E0,7.959999889E-2,8.999999613E-3,-1.018999964E-1,1.296177807E-1
5.253611507E0,5.130000040E-2,-3.109999932E-2,-1.410999894E-1,1.533235370E-1
5.263613070E0,6.189999729E-2,-6.079999730E-2,-1.410999894E-1,1.656425560E-1
5.273634945E0,7.239999622E-2,-5.089999735E-2,-9.200000018E-2,1.276580167E-1
5.283613070E0,9.250000119E-2,-6.039999798E-2,-5.269999802E-2,1.223997540E-1
5.293614632E0,7.289999723E-2,-6.059999764E-2,-1.349999942E-2,9.575499619E-2
5.303613070E0,7.209999859E-2,-4.149999842E-2,6.000000052E-3,8.340659247E-2
5.313611507E0,6.119999662E-2,-4.189999774E-2,5.899999756E-3,7.440335607E-2
5.323633382E0,9.959999472E-2,-5.229999870E-2,-3.329999745E-2,1.173215182E-1
5.333613070E0,1.189999953E-1,-5.249999836E-2,-7.249999791E-2,1.489076842E-1
5.343613070E0,1.190999970E-1,-5.260000005E-2,-5.289999768E-2,1.405346187E-1
5.353613070E0,1.196999997E-1,-2.359999903E-2,-6.269999593E-2,1.371726626E-1
5.363613070E0,1.202999949E-1,-1.459999941E-2,-5.279999971E-2,1.321858114E-1
5.373631820E0,1.206999943E-1,-3.549999744E-2,-8.229999989E-2,1.503397100E-1
5.383614632E0,1.202999949E-1,-4.659999907E-2,-4.309999943E-2,1.360193319E-1
5.393611507E0,1.096999943E-1,-3.790000081E-2,5.799999926E-3,1.162073096E-1
5.403614632E0,1.188999936E-1,-6.809999794E-2,-3.899999894E-3,1.370767238E-1
5.413613070E0,9.910000116E-2,-7.849999517E-2,-1.370000001E-2,1.271642618E-1
5.423631820E0,9.950000048E-2,-6.920000166E-2,-5.299999937E-2,1.322795912E-1
5.433611507E0,1.004000008E-1,-4.949999973E-2,-7.249999791E-2,1.333666369E-1
5.443613070E0,9.179999679E-2,-5.909999833E-2,-8.219999820E-2,1.366634147E-1
5.453613070E0,1.123999953E-1,-4.899999872E-2,-1.017999947E-1,1.593674928E-1
5.463614632E0,9.339999408E-2,-3.909999877E-2,-1.017999947E-1,1.435813627E-1
5.473634945E0,1.131999940E-1,-1.950000040E-2,-9.200000018E-2,1.471682326E-1
5.483613070E0,1.229999959E-1,-2.979999967E-2,-9.200000018E-2,1.564641781E-1
5.493613070E0,1.228999943E-1,-6.960000098E-2,-1.017999947E-1,1.741028651E-1
5.503614632E0,8.370000124E-2,-7.970000058E-2,-6.250000000E-2,1.313926570E-1
5.513611507E0,8.449999988E-2,-6.969999522E-2,-2.329999954E-2,1.119876301E-1
5.523631820E0,1.050999984E-1,-3.999999911E-2,-3.299999982E-2,1.171964572E-1
5.533614632E0,1.064999998E-1,-3.019999899E-2,-3.289999813E-2,1.154846300E-1
5.543614632E0,6.859999895E-2,-5.029999837E-2,-3.289999813E-2,9.120558957E-2
5.553613070E0,9.950000048E-2,-5.109999701E-2,-4.259999841E-2,1.196921871E-1
5.563611507E0,1.010999978E-1,-1.289999951E-2,-5.229999870E-2,1.145552679E-1
5.573631820E0,8.289999515E-2,5.899999756E-3,-7.189999521E-2,1.098946245E-1
5.583613070E0,9.399999678E-2,5.499999970E-3,-7.180000097E-2,1.184123707E-1
5.593613070E0,9.479999542E-2,5.899999756E-3,-5.209999904E-2,1.083340160E-1
5.603613070E0,7.530000061E-2,6.899999920E-3,-1.289999951E-2,7.670795316E-2
5.613613070E0,5.529999733E-2,7.499999832E-3,1.640000008E-2,5.816613882E-2
5.623633382E0,5.480000004E-2,-1.239999942E-2,1.640000008E-2,5.852999225E-2
5.633614632E0,9.369999915E-2,-3.329999745E-2,-4.239999875E-2,1.081033744E-1
5.643614632E0,8.389999717E-2,-3.469999880E-2,-8.159999549E-2,1.220731695E-1
5.653613070E0,6.480000168E-2,-6.489999592E-2,-9.139999747E-2,1.294797638E-1
5.663613070E0,8.579999954E-2,-8.419999480E-2,-6.189999729E-2,1.352142326E-1
5.673633382E0,6.819999963E-2,-7.360000163E-2,-4.219999909E-2,1.088532963E-1
5.683611507E0,7.050000131E-2,-5.329999700E-2,-7.140000165E-2,1.136182208E-1
5.693613070E0,8.219999820E-2,-4.339999706E-2,-1.301999986E-1,1.599763704E-1
5.703611507E0,9.269999713E-2,-3.359999880E-2,-1.300999969E-1,1.632429435E-1
5.713611507E0,1.217999980E-1,-3.370000049E-2,-1.006999984E-1,1.615902820E-1
5.723634945E0,1.118000001E-1,-1.389999967E-2,-3.209999949E-2,1.171446114E-1
5.733614632E0,1.127000004E-1,-3.359999880E-2,-1.239999942E-2,1.182540063E-1
5.743614632E0,8.569999784E-2,-3.409999982E-2,-6.129999831E-2,1.107474127E-1
5.753611507E0,8.850000054E-2,-4.449999705E-2,-5.130000040E-2,1.115535292E-1
5.763614632E0,9.089999646E-2,-4.499999806E-2,-1.200000010E-2,1.021362286E-1
5.773634945E0,7.199999690E-2,-2.609999850E-2,-1.189999934E-2,7.750367385E-2
5.783611507E0,8.109999448E-2,-3.680000082E-2,-2.180000022E-2,9.168799908E-2
5.793613070E0,9.889999777E-2,-2.759999968E-2,-8.079999685E-2,1.306583676E-1
5.803613070E0,7.699999958E-2,-2.759999968E-2,-1.102999970E-1,1.373202435E-1
5.813613070E0,1.044999957E-1,-3.619999811E-2,-8.100000024E-2,1.370827816E-1
5.823633382E0,1.228999943E-1,-4.439999908E-2,-7.119999826E-2,1.488126616E-1
5.833611507E0,9.359999746E-2,-5.269999802E-2,-5.159999803E-2,1.191671478E-1
5.843611507E0,1.140999943E-1,-5.189999938E-2,-3.199999779E-2,1.293693105E-1
5.853611507E0,1.053999960E-1,-3.219999745E-2,-3.189999983E-2,1.147327721E-1
5.863613070E0,1.063999981E-1,-5.240000039E-2,-4.160000011E-2,1.256872294E-1
5.873634945E0,8.709999919E-2,-6.309999526E-2,-6.119999662E-2,1.237475610E-1
5.883611507E0,6.689999998E-2,-9.309999645E-2,-8.089999855E-2,1.403140374E-1
5.893613070E0,8.579999954E-2,-7.329999655E-2,-3.189999983E-2,1.172695161E-1
5.903613070E0,6.579999626E-2,-4.339999706E-2,-1.229999959E-2,7.977774904E-2
5.913613070E0,6.650000066E-2,-5.240000039E-2,-1.229999959E-2,8.555290830E-2
5.923633382E0,8.739999682E-2,-4.209999740E-2,-2.399999881E-3,9.704086368E-2
5.933613070E0,1.089999974E-1,-3.189999983E-2,-3.170000017E-2,1.179131012E-1
5.943613070E0,1.209999993E-1,7.499999832E-3,-5.109999701E-2,1.315616188E-1
5.953613070E0,1.123999953E-1,3.689999878E-2,-4.129999876E-2,1.253038657E-1
5.963614632E0,9.329999983E-2,2.659999952E-2,-4.120000079E-2,1.054034630E-1
5.973633382E0,8.339999616E-2,-3.299999982E-2,-5.109999701E-2,1.032267845E-1
5.983614632E0,8.359999955E-2,-7.349999994E-2,-8.049999923E-2,1.373734319E-1
5.993614632E0,8.429999650E-2,-9.399999678E-2,-1.295000017E-1,1.808666338E-1
6.003614632E0,8.549999446E-2,-7.440000027E-2,-1.195999980E-1,1.647718684E-1
6.013611507E0,1.061000004E-1,-3.469999880E-2,-9.989999980E-2,1.498042388E-1
6.023631820E0,1.061000004E-1,-1.409999933E-2,-9.009999782E-2,1.399072181E-1
6.033613070E0,1.343999952E-1,-4.289999977E-2,-6.069999933E-2,1.535846952E-1
6.043613070E0,1.225999966E-1,-7.220000029E-2,-5.109999701E-2,1.511780702E-1
6.053613070E0,1.392000020E-1,-6.250000000E-2,-4.140000045E-2,1.581039234E-1
6.063613070E0,1.361999959E-1,-3.280000016E-2,-3.179999813E-2,1.436576443E-1
6.073633382E0,1.636999995E-1,-4.189999774E-2,-2.499999944E-3,1.689957089E-1
6.083614632E0,1.539999992E-1,-6.030000001E-2,-1.229999959E-2,1.658414295E-1
6.093613070E0,1.358999908E-1,-5.909999833E-2,-2.199999988E-2,1.498186146E-1
6.103613070E0,1.286000013E-1,-3.859999776E-2,-2.180000022E-2,1.360263216E-1
6.113611507E0,1.111999974E-1,-3.849999979E-2,-2.169999853E-2,1.196602663E-1
6.123633382E0,9.309999645E-2,-4.939999804E-2,-4.120000079E-2,1.131609880E-1
6.133613070E0,1.039000005E-1,-5.109999701E-2,-9.019999951E-2,1.467734980E-1
6.143614632E0,9.489999712E-2,-5.279999971E-2,-1.294000000E-1,1.689325588E-1
6.153613070E0,5.619999766E-2,-6.329999864E-2,-1.294000000E-1,1.546275834E-1
6.163613070E0,6.610000134E-2,-3.329999745E-2,-8.029999584E-2,1.092070938E-1
6.173631820E0,6.610000134E-2,-2.229999937E-2,-5.089999735E-2,8.635571712E-2
6.183611507E0,5.559999868E-2,-1.139999926E-2,-4.109999910E-2,7.007517223E-2
6.193611507E0,8.419999480E-2,-2.029999904E-2,7.699999958E-3,8.695412058E-2
6.203611507E0,1.032999977E-1,-1.970000006E-2,7.699999958E-3,1.054432053E-1
6.213613070E0,9.339999408E-2,-3.909999877E-2,-1.179999951E-2,1.019392407E-1
6.223633382E0,1.133999974E-1,-6.889999658E-2,-2.159999870E-2,1.344370815E-1
6.233613070E0,1.334999949E-1,-4.010000080E-2,-4.120000079E-2,1.453537023E-1
6.243613070E0,1.338000000E-1,-3.070000000E-2,-4.120000079E-2,1.433260969E-1
6.253614632E0,1.340000033E-1,-4.069999978E-2,-7.059999555E-2,1.568338301E-1
6.263614632E0,1.339000016E-1,-5.999999866E-2,-6.079999730E-2,1.588264775E-1
6.273631820E0,1.137999967E-1,-4.989999905E-2,-3.139999881E-2,1.281655534E-1
6.283611507E0,1.327999979E-1,-5.979999900E-2,-1.999999862E-3,1.456567174E-1
6.293611507E0,1.419000030E-1,-7.019999623E-2,-4.129999876E-2,1.636133864E-1
6.303614632E0,1.316999942E-1,-8.119999617E-2,-7.069999725E-2,1.701082522E-1
6.313611507E0,1.221999973E-1,-7.249999791E-2,-7.069999725E-2,1.587059503E-1
6.323633382E0,1.427000016E-1,-4.360000044E-2,-7.069999725E-2,1.651143243E-1
6.333613070E0,1.250000000E-1,-4.349999875E-2,-8.029999584E-2,1.548074263E-1
6.343614632E0,1.172999963E-1,-5.289999768E-2,-8.020000160E-2,1.516236761E-1
6.353613070E0,9.899999946E-2,-6.209999695E-2,-8.009999990E-2,1.416806956E-1
6.363613070E0,8.949999511E-2,-5.189999938E-2,-8.009999990E-2,1.308429174E-1
6.373633382E0,6.929999590E-2,-5.199999735E-2,-4.089999944E-2,9.580865885E-2
6.383613070E0,9.749999642E-2,-4.250000045E-2,-3.119999915E-2,1.108419564E-1
6.393613070E0,8.689999580E-2,-4.299999774E-2,-1.159999985E-2,9.764819032E-2
6.403614632E0,9.649999440E-2,-4.339999706E-2,-1.799999969E-3,1.058255577E-1
6.413613070E0,1.070999950E-1,-3.370000049E-2,7.899999619E-3,1.125544711E-1
6.423633382E0,1.182999983E-1,-3.379999846E-2,-1.699999906E-3,1.230455993E-1
6.433611507E0,1.197999939E-1,-3.399999812E-2,-2.119999938E-2,1.263229132E-1
6.443614632E0,1.305999905E-1,-3.460000083E-2,-3.099999949E-2,1.386164404E-1
6.453611507E0,1.211999953E-1,-6.099999882E-3,-5.059999973E-2,1.314800701E-1
6.463613070E0,8.179999888E-2,-2.709999867E-2,-7.999999821E-2,1.175825219E-1
6.473631820E0,8.089999855E-2,-4.809999838E-2,-7.029999793E-2,1.174755690E-1
6.483613070E0,9.019999951E-2,-3.909999877E-2,-6.049999967E-2,1.154343960E-1
6.493611507E0,9.979999810E-2,-1.030000020E-2,-3.109999932E-2,1.050397048E-1
6.503613070E0,1.296000034E-1,-1.999999955E-2,-2.129999921E-2,1.328527411E-1
6.513613070E0,1.108999997E-1,-2.979999967E-2,-5.059999973E-2,1.254878874E-1
6.523634945E0,1.316999942E-1,-7.869999856E-2,-1.191999987E-1,1.942864327E-1
6.533611507E0,1.517999917E-1,-9.829999506E-2,-1.387999952E-1,2.279727290E-1
6.543611507E0,9.219999611E-2,-8.829999715E-2,-9.959999472E-2,1.619193865E-1
6.553613070E0,9.070000052E-2,-5.859999731E-2,-7.029999793E-2,1.288508420E-1
6.563613070E0,8.929999918E-2,-5.810000002E-2,-3.109999932E-2,1.109833763E-1
6.573631820E0,1.278999895E-1,-6.759999692E-2,-3.119999915E-2,1.479919148E-1
6.583613070E0,1.378999949E-1,-6.729999930E-2,-7.039999962E-2,1.688249343E-1
6.593611507E0,1.386999935E-1,-4.729999974E-2,-6.049999967E-2,1.585409352E-1
6.603613070E0,1.299999952E-1,1.899999916E-3,8.100000210E-3,1.302659540E-1
6.613613070E0,1.021999940E-1,2.119999938E-2,-1.129999943E-2,1.049855644E-1
6.623631820E0,1.037999988E-1,-8.999999613E-3,-7.009999454E-2,1.255764666E-1
6.633613070E0,7.580000162E-2,-3.909999877E-2,-1.092000008E-1,1.385607820E-1
6.643613070E0,8.619999886E-2,-3.920000046E-2,-1.092000008E-1,1.445396832E-1
6.653613070E0,9.539999813E-2,-2.869999968E-2,-7.000000030E-2,1.217573393E-1
6.663614632E0,9.380000085E-2,-3.759999946E-2,-5.049999803E-2,1.129710136E-1
6.673634945E0,1.013999954E-1,-4.639999941E-2,-7.019999623E-2,1.317685793E-1
6.683613070E0,1.081999987E-1,-5.529999733E-2,-8.020000160E-2,1.455931650E-1
6.693614632E0,1.149999946E-1,-5.429999903E-2,-5.089999735E-2,1.369828398E-1
6.703613070E0,1.419999897E-1,-5.359999835E-2,-1.999999862E-3,1.517924798E-1
6.713611507E0,1.407999992E-1,-6.309999526E-2,7.599999662E-3,1.544798019E-1
6.723631820E0,1.211999953E-1,-7.289999723E-2,-5.109999701E-2,1.503830381E-1
6.733613070E0,1.121999994E-1,-7.289999723E-2,-1.000999957E-1,1.671025392E-1
6.743613070E0,1.134999990E-1,-8.240000159E-2,-9.019999951E-2,1.667574585E-1
6.753611507E0,1.049999967E-1,-7.199999690E-2,-1.097999960E-1,1.681220925E-1
6.763614632E0,1.061999947E-1,-5.139999837E-2,-1.194999963E-1,1.679304851E-1
6.773631820E0,8.810000122E-2,-4.019999877E-2,-1.193999946E-1,1.537335644E-1
6.783611507E0,8.969999850E-2,-5.799999833E-2,-9.969999641E-2,1.461170039E-1
6.793613070E0,9.139999747E-2,-5.619999766E-2,-6.039999798E-2,1.231282219E-1
6.803613070E0,7.310000062E-2,-4.499999806E-2,-5.049999803E-2,9.959347226E-2
6.813613070E0,7.319999486E-2,-3.439999744E-2,-8.969999850E-2,1.207795049E-1
6.823633382E0,8.159999549E-2,5.299999844E-3,-1.289999932E-1,1.527339108E-1
6.833611507E0,1.184000000E-1,-2.279999852E-2,-1.193000004E-1,1.696198397E-1
6.843611507E0,1.358999908E-1,-1.109999977E-2,-1.096000001E-1,1.749404971E-1
6.853611507E0,1.444000006E-1,-1.799999923E-2,-8.029999584E-2,1.662030369E-1
6.863611507E0,1.447999924E-1,-1.480000000E-2,-5.079999939E-2,1.541645801E-1
6.873633382E0,1.366999894E-1,-3.130000085E-2,-5.069999769E-2,1.491209809E-1
6.883613070E0,1.194999963E-1,3.029999882E-2,-1.190999970E-1,1.714151345E-1
6.893611507E0,8.259999752E-2,2.329999954E-2,-1.581999958E-1,1.799802440E-1
6.903611507E0,7.440000027E-2,4.559999704E-2,-1.678999960E-1,1.892224311E-1
6.913613070E0,9.499999881E-2,4.839999974E-2,-9.919999540E-2,1.456303500E-1
6.923633382E0,3.739999980E-2,7.039999962E-2,-1.774999946E-1,1.945794646E-1
6.933613070E0,4.800000042E-2,9.299999475E-2,-2.951000035E-1,3.131086251E-1
6.943613070E0,9.690000117E-2,1.075999960E-1,-1.773999929E-1,2.289937267E-1
6.953613070E0,8.729999512E-2,1.132999957E-1,-1.184999943E-1,1.857429051E-1
6.963614632E0,8.799999952E-2,1.092999950E-1,-4.969999939E-2,1.488642965E-1
6.973634945E0,1.093999967E-1,1.252999902E-1,3.859999776E-2,1.707583282E-1
6.983611507E0,-3.519999981E-2,1.119999960E-1,4.859999940E-2,1.270629727E-1
6.993613070E0,-3.299999982E-3,1.284999996E-1,2.645999789E-1,2.941705097E-1
7.003613070E0,1.999999949E-4,1.343999952E-1,4.021999836E-1,4.240615822E-1
7.013613070E0,6.899999920E-3,1.388999969E-1,3.634999990E-1,3.891954116E-1
7.023633382E0,1.569999941E-2,2.109999955E-1,2.463999987E-1,3.247775353E-1
7.033613070E0,1.579999924E-2,2.823999822E-1,4.109999910E-2,2.858121758E-1
7.043613070E0,7.400000095E-2,3.737999797E-1,-2.326999903E-1,4.464881974E-1
7.053611507E0,1.110999957E-1,4.077999890E-1,-3.889999986E-1,5.744258342E-1
7.063611507E0,1.266999990E-1,3.562999964E-1,-3.296999931E-1,5.017017666E-1
7.073631820E0,3.085999787E-1,3.845999837E-1,-2.604999840E-1,5.576839033E-1
7.083613070E0,4.132999778E-1,4.819999933E-1,-3.677999973E-1,7.337695164E-1
7.093613070E0,4.303999841E-1,5.008999705E-1,-4.749999940E-1,8.134924223E-1
7.103611507E0,4.757999778E-1,5.094999671E-1,-4.351999760E-1,8.218119337E-1
7.113611507E0,5.188999772E-1,5.072999597E-1,-3.759000003E-1,8.172583714E-1
7.123633382E0,5.780000091E-1,4.943999946E-1,-2.089999914E-1,7.887942454E-1
7.133613070E0,6.155999899E-1,4.324999750E-1,-6.189999729E-2,7.548848823E-1
7.143613070E0,6.134999990E-1,3.314999938E-1,1.649999991E-2,6.975290279E-1
7.153613070E0,6.308000088E-1,2.991999984E-1,1.144999936E-1,7.074881898E-1
7.163613070E0,6.574000120E-1,2.857999802E-1,2.026999891E-1,7.449454276E-1
7.173633382E0,6.456999779E-1,2.809999883E-1,2.321999967E-1,7.414892402E-1
7.183614632E0,6.250999570E-1,2.556999922E-1,1.732999980E-1,6.972555712E-1
7.193613070E0,6.150000095E-1,2.496999949E-1,1.048000008E-1,6.719807582E-1
7.203613070E0,6.051999927E-1,1.949999928E-1,5.579999834E-2,6.382833760E-1
7.213611507E0,5.859999657E-1,1.800999939E-1,1.049999967E-1,6.219782688E-1
7.223631820E0,5.965999961E-1,2.038999945E-1,2.816999853E-1,6.905516960E-1
7.233613070E0,5.884000063E-1,2.447999865E-1,3.700999916E-1,7.369637742E-1
7.243611507E0,5.317999721E-1,2.324999869E-1,3.211999834E-1,6.633527595E-1
7.253614632E0,5.230000019E-1,2.365999967E-1,1.543999910E-1,5.944307509E-1
7.263611507E0,5.503999591E-1,2.492999882E-1,-4.199999943E-2,6.056852310E-1
7.273631820E0,5.845000148E-1,2.724999785E-1,-1.502999961E-1,6.621832031E-1
7.283613070E0,6.550999880E-1,2.973999977E-1,-1.999999881E-1,7.467280282E-1
7.293611507E0,6.850000024E-1,3.146999776E-1,-1.810999960E-1,7.752794901E-1
7.303613070E0,6.761999726E-1,3.438999951E-1,-1.523000002E-1,7.737628187E-1
7.313613070E0,6.699999571E-1,3.935999870E-1,-1.919000000E-1,8.004039619E-1
7.323633382E0,6.384999752E-1,4.620999992E-1,-2.213999927E-1,8.186797813E-1
7.333613070E0,5.525999665E-1,5.182999969E-1,-3.193999827E-1,8.222031128E-1
7.343611507E0,4.217999876E-1,6.193000078E-1,-4.171999991E-1,8.576150468E-1
7.353613070E0,2.454999983E-1,7.250999808E-1,-6.129999757E-1,9.807187168E-1
7.363613070E0,-9.589999914E-2,8.161999583E-1,-8.282999992E-1,1.166816211E0
7.373633382E0,-3.387999833E-1,8.646000028E-1,-9.944999814E-1,1.360642792E0
7.383613070E0,-5.530999899E-1,8.822999597E-1,-1.180499911E0,1.574151472E0
7.393613070E0,-7.793999910E-1,8.820999861E-1,-1.297799945E0,1.752098578E0
7.403611507E0,-8.828999996E-1,8.288999796E-1,-1.199599981E0,1.704590186E0
7.413613070E0,-9.034999609E-1,7.055000067E-1,-8.858999610E-1,1.448744691E0
7.423633382E0,-8.793999553E-1,5.812999606E-1,-4.939999878E-1,1.164169195E0
7.433613070E0,-8.183000088E-1,4.654999971E-1,-2.590000033E-1,9.764149494E-1
7.443614632E0,-8.768000007E-1,2.991999984E-1,5.429999903E-2,9.280341427E-1
7.453614632E0,-6.538999677E-1,2.094999999E-1,6.226999760E-1,9.269469660E-1
7.463613070E0,-3.847999871E-1,2.721000016E-1,1.132300019E0,1.226463524E0
7.473633382E0,-1.456999928E-1,3.874999881E-1,1.445899963E0,1.503998482E0
7.483611507E0,8.630000055E-2,5.432000160E-1,1.328499913E0,1.437854640E0
7.493613070E0,2.048999965E-1,7.380999923E-1,8.583999872E-1,1.150489524E0
7.503611507E0,2.996999919E-1,9.911999702E-1,1.631999910E-1,1.048299434E0
7.513613070E0,3.409000039E-1,1.204900026E0,-4.430999756E-1,1.328282528E0
7.523631820E0,4.057999849E-1,1.408100009E0,-8.137999773E-1,1.676212894E0
7.533614632E0,4.836999774E-1,1.470600009E0,-1.145099998E0,1.925586679E0
7.543614632E0,5.557000041E-1,1.870999932E0,-1.191900015E0,2.286934386E0
7.553613070E0,5.422999859E-1,2.087199926E0,-1.425199986E0,2.584896092E0
7.563613070E0,6.764000058E-1,2.217599869E0,-1.737199903E0,2.897089858E0
7.573634945E0,3.350999951E-1,2.187799931E0,-1.363199949E0,2.599437371E0
7.583611507E0,-4.839999974E-2,1.948199987E0,-1.068099976E0,2.222310354E0
7.593613070E0,-2.282999903E-1,1.850799918E0,-8.615999818E-1,2.054248220E0
7.603611507E0,-4.099999964E-1,1.760399938E0,-6.653000116E-1,1.926066469E0
7.613614632E0,-5.515999794E-1,1.661099911E0,-3.805999756E-1,1.791192841E0
7.623633382E0,-6.611999869E-1,1.555699944E0,-1.248999983E-1,1.694989012E0
7.633611507E0,-8.078999519E-1,1.435699940E0,9.200000018E-2,1.649969893E0
7.643614632E0,-8.746999502E-1,1.321200013E0,3.191999793E-1,1.616340962E0
7.653613070E0,-9.118999839E-1,1.249899983E0,5.564000010E-1,1.644199656E0
7.663611507E0,-8.910999894E-1,1.140599966E0,5.975999832E-1,1.565935252E0
7.673633382E0,-8.518999815E-1,1.110000014E0,5.602999926E-1,1.507239096E0
7.683613070E0,-7.069000006E-1,1.186800003E0,4.443999827E-1,1.451100687E0
7.693613070E0,-5.631999969E-1,1.292199969E0,3.087999821E-1,1.443028907E0
7.703613070E0,-4.301999807E-1,1.386799932E0,1.239999980E-1,1.457278996E0
7.713609945E0,-3.364000022E-1,1.441299915E0,-9.999999404E-2,1.483411745E0
7.723631820E0,-2.718999982E-1,1.495700002E0,-2.454999983E-1,1.539908554E0
7.733614632E0,-1.782999933E-1,1.578999996E0,-3.125999868E-1,1.619490854E0
7.743614632E0,-1.669999957E-2,1.680299997E0,-3.210999966E-1,1.710787006E0
7.753611507E0,-3.409999982E-2,1.700299978E0,-2.612999976E-1,1.720598883E0
7.763613070E0,-3.460000083E-2,1.716199994E0,-1.431999952E-1,1.722511486E0
7.773633382E0,3.999999911E-2,1.757099986E0,-1.589999907E-2,1.757627142E0
7.783613070E0,4.349999875E-2,1.804600000E0,5.199999735E-2,1.805873033E0
7.793613070E0,4.569999874E-2,1.821699977E0,4.140000045E-2,1.822743332E0
7.803613070E0,2.819999866E-2,1.771399975E0,1.399999950E-3,1.771624980E0
7.813611507E0,9.699999355E-3,1.724399924E0,-5.790000036E-2,1.725398968E0
7.823633382E0,1.960000023E-2,1.750000000E0,9.860000014E-2,1.752885085E0
7.833613070E0,1.939999871E-2,1.738699913E0,2.945999801E-1,1.763588074E0
7.843611507E0,-1.030000020E-2,1.726999998E0,3.434999883E-1,1.760859826E0
7.853614632E0,8.799999952E-3,1.673900008E0,4.117999971E-1,1.723832334E0
7.863613070E0,-1.500000013E-3,1.687199950E0,4.308999777E-1,1.741355998E0
7.873633382E0,-3.219999745E-2,1.689199924E0,4.596000016E-1,1.750904162E0
7.883611507E0,-3.219999745E-2,1.689799905E0,5.080000162E-1,1.764801568E0
7.893611507E0,-8.919999748E-2,1.708699942E0,4.680999815E-1,1.773902399E0
7.903614632E0,-1.448999941E-1,1.814999938E0,4.184999764E-1,1.868251325E0
7.913613070E0,-1.402999908E-1,1.911099911E0,4.179999828E-1,1.961303378E0
7.923633382E0,-1.844999939E-1,1.918899894E0,5.841999650E-1,2.014325358E0
7.933613070E0,-1.509999931E-1,1.691499949E0,9.268999696E-1,1.934713578E0
7.943613070E0,-1.271999925E-1,1.315999985E0,1.279299974E0,1.839740260E0
7.953611507E0,-2.124999911E-1,9.476999640E-1,1.611799955E0,1.881805134E0
7.963611507E0,-1.421999931E-1,6.554999948E-1,1.757699966E0,1.881332042E0
7.973634945E0,-2.402999997E-1,3.429999948E-1,2.335000038E0,2.372260160E0
7.983611507E0,-4.501999915E-1,-1.261000037E-1,2.892499924E0,2.930040452E0
7.993613070E0,-3.980999887E-1,-5.963999629E-1,3.449699879E0,3.523436642E0
8.003611507E0,-3.001999855E-1,-1.117599964E0,3.594699860E0,3.776376145E0
8.013611507E0,-4.658999741E-1,-1.432500005E0,3.592799902E0,3.895809311E0
8.023639632E0,-6.356999874E-1,-1.500800014E0,3.434399843E0,3.801528303E0
8.033611507E0,-5.842999816E-1,-1.333299994E0,3.050899982E0,3.380397321E0
8.043611507E0,-4.901999831E-1,-1.186800003E0,2.559599876E0,2.863623893E0
8.053613070E0,-2.673999965E-1,-9.646999836E-1,2.029000044E0,2.262518507E0
8.063613070E0,3.399999812E-2,-7.653999925E-1,1.547199965E0,1.726505395E0
8.073638070E0,2.036999911E-1,-6.484999657E-1,8.104999661E-1,1.057807207E0
8.083611507E0,4.109999835E-1,-3.770999908E-1,-8.259999752E-2,5.638689113E-1
8.093613070E0,4.078999758E-1,-1.042999998E-1,-9.850999713E-1,1.071299600E0
8.103613070E0,3.980999887E-1,-1.014999971E-1,-1.573300004E0,1.626056196E0
8.113611507E0,4.272999763E-1,-1.032999977E-1,-1.602100015E0,1.661318939E0
8.123636507E0,5.521000028E-1,-1.904999912E-1,-1.611400008E0,1.713976268E0
8.133611507E0,7.093999982E-1,-4.154999852E-1,-1.532699943E0,1.739269303E0
8.143611507E0,8.175999522E-1,-7.026000023E-1,-1.111699939E0,1.548545511E0
8.153611507E0,8.479999900E-1,-1.015499949E0,-6.032999754E-1,1.454068427E0
8.163613070E0,7.551999688E-1,-1.188699961E0,-1.838999987E-1,1.420265397E0
8.173638070E0,6.902999878E-1,-1.269799948E0,2.919999883E-2,1.445599744E0
8.183611507E0,5.778999925E-1,-1.402199984E0,3.669999912E-2,1.517062980E0
8.193614632E0,4.101999998E-1,-1.659799933E0,1.817999929E-1,1.719375205E0
8.203614632E0,3.637000024E-1,-1.843699932E0,5.333999991E-1,1.953464279E0
8.213613070E0,4.783999920E-1,-1.855999947E0,8.364999890E-1,2.091251918E0
8.223638070E0,5.766999722E-1,-1.717499971E0,8.456999660E-1,1.999399270E0
8.233613070E0,6.383000016E-1,-1.457700014E0,5.805999637E-1,1.693934043E0
8.243614632E0,7.214999795E-1,-1.095299959E0,9.999999404E-2,1.315387479E0
8.253613070E0,6.775999665E-1,-7.379999757E-1,-4.390999973E-1,1.093889613E0
8.263614632E0,6.214999557E-1,-4.557999969E-1,-9.587000012E-1,1.230090047E0
8.273636507E0,6.110000014E-1,-2.789999843E-1,-1.321599960E0,1.482493996E0
8.283611507E0,6.572999954E-1,-8.980000019E-2,-1.664899945E0,1.792205109E0
8.293611507E0,6.448000073E-1,7.310000062E-2,-1.890499949E0,1.998774804E0
8.303611507E0,6.629999876E-1,2.196999937E-1,-1.968699932E0,2.088927115E0
8.313614632E0,6.230999827E-1,3.382000029E-1,-1.948799968E0,2.073753636E0
8.323638070E0,5.945000052E-1,4.458999932E-1,-1.909199953E0,2.048731686E0
8.333613070E0,5.758000016E-1,5.507000089E-1,-1.830500007E0,1.996383334E0
8.343614632E0,5.857999921E-1,6.121000051E-1,-1.879399896E0,2.061546025E0
8.353613070E0,6.049000025E-1,6.409999728E-1,-2.026599884E0,2.209952956E0
8.363611507E0,6.233999729E-1,6.601999998E-1,-2.105099916E0,2.292583090E0
8.373636507E0,6.114999652E-1,6.428999901E-1,-2.144399881E0,2.320711842E0
8.383613070E0,5.490999818E-1,5.611000061E-1,-2.046299934E0,2.191731605E0
8.393613070E0,4.170999825E-1,4.436999857E-1,-1.820699930E0,1.919841220E0
8.403613070E0,3.537999988E-1,3.568999767E-1,-1.614599943E0,1.691001185E0
8.413613070E0,3.898999989E-1,2.698000073E-1,-1.388799906E0,1.467507830E0
8.423636507E0,3.802999854E-1,1.521999985E-1,-1.329599977E0,1.391268851E0
8.433611507E0,3.265999854E-1,2.010999918E-1,-1.279899955E0,1.336133471E0
8.443616195E0,3.757999837E-1,3.879999816E-1,-1.288699985E0,1.397325039E0
8.453613070E0,4.099999964E-1,4.973999858E-1,-1.395200014E0,1.536909178E0
8.463613070E0,3.974999785E-1,6.373999715E-1,-1.570099950E0,1.740545549E0
8.473636507E0,3.748999834E-1,7.791999578E-1,-1.627299905E0,1.842771704E0
8.483613070E0,3.597999811E-1,9.131000042E-1,-1.615799904E0,1.890507068E0
8.493609945E0,3.619000018E-1,1.009400010E0,-1.565199971E0,1.897290421E0
8.503613070E0,3.623999953E-1,1.077099919E0,-1.504699945E0,1.885629847E0
8.513613070E0,3.813999891E-1,1.174499989E0,-1.336399913E0,1.819582617E0
8.523638070E0,3.497999907E-1,1.340600014E0,-1.070099950E0,1.750623413E0
8.533613070E0,2.691999972E-1,1.407400012E0,-8.527999520E-1,1.667486489E0
8.543614632E0,2.769999802E-1,1.374400020E0,-5.767999887E-1,1.516048360E0
8.553611507E0,2.649999857E-1,1.348999977E0,-2.321999967E-1,1.394253481E0
8.563614632E0,1.730999947E-1,1.261899948E0,7.279999554E-2,1.275795801E0
8.573638070E0,1.384000033E-1,1.073899984E0,5.148999691E-1,1.198973609E0
8.583613070E0,1.906999946E-1,8.639999628E-1,9.371999502E-1,1.288877873E0
8.593613070E0,2.917999923E-1,7.015999556E-1,1.339800000E0,1.540277174E0
8.603613070E0,4.430999756E-1,5.479999781E-1,1.712999940E0,1.852298669E0
8.613611507E0,5.173999667E-1,4.519999921E-1,1.831200004E0,1.955837460E0
8.623638070E0,5.936999917E-1,4.538999796E-1,1.792699933E0,1.942235290E0
8.633613070E0,5.835999846E-1,6.133999825E-1,1.724900007E0,1.921491222E0
8.643613070E0,5.855000019E-1,7.943999767E-1,1.471099973E0,1.771444807E0
8.653614632E0,4.633999765E-1,9.294999838E-1,1.286499977E0,1.653418262E0
8.663613070E0,3.734000027E-1,9.503999949E-1,1.367100000E0,1.706355802E0
8.673638070E0,2.945999801E-1,8.556999564E-1,1.555899978E0,1.799954528E0
8.683613070E0,2.547000051E-1,7.313999534E-1,1.793699980E0,1.953759863E0
8.693611507E0,2.814999819E-1,6.640999913E-1,2.021499872E0,2.146330071E0
8.703611507E0,2.671000063E-1,6.150999665E-1,2.092099905E0,2.196946152E0
8.713613070E0,2.266999930E-1,5.855000019E-1,2.338799953E0,2.421608631E0
8.723636507E0,2.241999954E-1,4.384000003E-1,2.682499886E0,2.727318433E0
8.733613070E0,2.369999886E-1,2.479999885E-2,3.014999866E0,3.024402128E0
8.743613070E0,2.752999961E-1,-2.538999915E-1,3.669899940E0,3.688959320E0
8.753613070E0,2.559999935E-2,-9.326999784E-1,3.755100012E0,3.869284263E0
8.763613070E0,-8.919999748E-2,-1.298399925E0,3.389299870E0,3.630585712E0
8.773638070E0,-8.949999511E-2,-1.322499990E0,2.357100010E0,2.704244244E0
8.783611507E0,-6.239999831E-2,-1.170799971E0,1.129499912E0,1.628016088E0
8.793616195E0,-9.259999543E-2,-1.093999982E0,2.260999978E-1,1.120951350E0
8.803613070E0,-1.576000005E-1,-1.107800007E0,-3.824999928E-1,1.182524782E0
8.813611507E0,-2.069000006E-1,-1.081399918E0,-5.891000032E-1,1.248708215E0
8.823638070E0,-1.388999969E-1,-1.188499928E0,-3.941999972E-1,1.259848771E0
8.833611507E0,-2.294999957E-1,-1.468099952E0,-1.349999942E-2,1.485991240E0
8.843611507E0,-2.619999945E-1,-1.655799985E0,3.761999905E-1,1.718093135E0
8.853613070E0,-9.519999474E-2,-1.781499982E0,5.303999782E-1,1.861217172E0
8.863614632E0,1.579999924E-1,-1.736299992E0,5.277000070E-1,1.821584189E0
8.873638070E0,4.527999759E-1,-1.665199995E0,3.883000016E-1,1.768811955E0
8.883613070E0,5.273999572E-1,-1.674199939E0,3.390000015E-2,1.755632467E0
8.893613070E0,5.081999898E-1,-1.674199939E0,-3.490999937E-1,1.784119803E0
8.903613070E0,4.912999868E-1,-1.499300003E0,-5.651000142E-1,1.675892062E0
8.913613070E0,5.827999711E-1,-1.213099957E0,-7.318999767E-1,1.531974180E0
8.923639632E0,6.348999739E-1,-1.027199984E0,-9.379999638E-1,1.529078714E0
8.933611507E0,5.406000018E-1,-8.959999681E-1,-1.124599934E0,1.536160576E0
8.943613070E0,4.670999944E-1,-7.317000031E-1,-1.183899999E0,1.468055348E0
8.953644320E0,4.251999855E-1,-4.869999886E-1,-1.253099918E0,1.410043766E0
8.963611507E0,3.382000029E-1,-2.698000073E-1,-1.371399999E0,1.438022685E0
8.973636507E0,2.450999916E-1,-1.754999906E-1,-1.479699969E0,1.510094782E0
8.983614632E0,3.070000000E-2,-1.604000032E-1,-1.607100010E0,1.615376455E0
8.993613070E0,-7.979999483E-2,-2.429999970E-2,-1.625999928E0,1.628138291E0
9.003613070E0,-1.779999882E-1,1.656000018E-1,-1.644599915E0,1.662472928E0
9.013613070E0,-1.868999898E-1,3.210999966E-1,-1.564799905E0,1.608302072E0
9.023634945E0,-2.267999947E-1,3.915999830E-1,-1.416399956E0,1.486935647E0
9.033611507E0,-2.592999935E-1,3.747999966E-1,-1.405399919E0,1.477450661E0
9.043613070E0,-2.942000031E-1,2.685999870E-1,-1.492699981E0,1.544944280E0
9.053611507E0,-3.632999957E-1,2.291999906E-1,-1.541099906E0,1.599846381E0
9.063613070E0,-4.770999849E-1,1.982000023E-1,-1.599900007E0,1.681245868E0
9.073638070E0,-5.764999986E-1,1.568000019E-1,-1.639400005E0,1.744869871E0
9.083613070E0,-6.017000079E-1,9.719999880E-2,-1.630299926E0,1.740508141E0
9.093611507E0,-6.480999589E-1,4.169999808E-2,-1.552599907E0,1.682955412E0
9.103613070E0,-6.639999747E-1,-3.830000013E-2,-1.396199942E0,1.546524210E0
9.113611507E0,-6.182000041E-1,-5.519999936E-2,-1.278800011E0,1.421459726E0
9.123638070E0,-5.896999836E-1,-1.030000020E-2,-1.347399950E0,1.470829285E0
9.133613070E0,-4.836999774E-1,1.065999940E-1,-1.278699994E0,1.371277835E0
9.143613070E0,-3.303999901E-1,2.167999893E-1,-1.092499971E0,1.161775614E0
9.153613070E0,-1.985999942E-1,3.391999900E-1,-8.964999914E-1,9.788824370E-1
9.163613070E0,-1.458999962E-1,3.745999932E-1,-8.574000001E-1,9.469671187E-1
9.173638070E0,4.490000010E-2,5.386999846E-1,-7.690999508E-1,9.400683048E-1
9.183613070E0,8.980000019E-2,6.833999753E-1,-6.611999869E-1,9.551361102E-1
9.193613070E0,1.761000007E-1,9.350999594E-1,-6.313999891E-1,1.141967202E0
9.203613070E0,2.540000081E-1,1.116400003E0,-5.428000093E-1,1.267082011E0
9.213614632E0,3.041000068E-1,1.245999932E0,-4.442999959E-1,1.357348567E0
9.223636507E0,3.944999874E-1,1.401999950E0,-3.849999905E-1,1.506472401E0
9.233611507E0,3.570999801E-1,1.486899972E0,-2.080999911E-1,1.543274936E0
9.243611507E0,3.179000020E-1,1.391699910E0,-6.089999899E-2,1.428844939E0
9.253613070E0,2.673999965E-1,1.273499966E0,1.545999944E-1,1.310422100E0
9.263613070E0,1.668999940E-1,1.190699935E0,3.209999800E-1,1.244452864E0
9.273636507E0,1.242999956E-1,1.103699923E0,6.146000028E-1,1.269384564E0
9.283611507E0,1.115999967E-1,9.827999473E-1,9.375999570E-1,1.362880763E0
9.293611507E0,-4.559999704E-2,8.563999534E-1,1.113600016E0,1.405562249E0
9.303613070E0,-1.811999977E-1,8.228999972E-1,1.181699991E0,1.451348585E0
9.313613070E0,-1.780999899E-1,8.842999935E-1,1.161700010E0,1.470800122E0
9.323638070E0,-1.545999944E-1,9.350999594E-1,1.102499962E0,1.453897953E0
9.333613070E0,-2.201999873E-1,9.475999475E-1,1.023800015E0,1.412303143E0
9.343613070E0,-2.396999896E-1,9.237999916E-1,9.253999591E-1,1.329371127E0
9.353613070E0,-2.639999986E-1,8.940999508E-1,9.344999790E-1,1.320000353E0
9.363613070E0,-1.978999972E-1,9.286999702E-1,1.129499912E0,1.475607704E0
9.373639632E0,-4.199999943E-2,9.298999906E-1,1.412199974E0,1.691386047E0
9.383611507E0,1.983999908E-1,9.078999758E-1,1.782999992E0,2.010655091E0
9.393613070E0,2.930999994E-1,6.951999664E-1,2.173599958E0,2.300814504E0
9.403616195E0,1.999000013E-1,3.707999885E-1,2.730900049E0,2.763198820E0
9.413613070E0,-7.069999725E-2,-6.289999932E-2,3.475199938E0,3.476488100E0
9.423636507E0,-1.630000025E-1,-5.338999629E-1,4.160200119E0,4.197485343E0
9.433613070E0,-1.768999994E-1,-1.061499953E0,4.571199894E0,4.696162713E0
9.443611507E0,2.510000020E-2,-1.385699987E0,3.864199877E0,4.105220476E0
9.453613070E0,1.416999996E-1,-1.244799972E0,2.324300051E0,2.640450072E0
9.463611507E0,7.779999822E-2,-1.151000023E0,9.316999912E-1,1.482875169E0
9.473638070E0,3.889999911E-2,-1.236599922E0,1.950000040E-2,1.237365276E0
9.483611507E0,1.473999918E-1,-1.360599995E0,-5.988999605E-1,1.493867553E0
9.493613070E0,3.489999771E-1,-1.510299921E0,-7.859999537E-1,1.737988137E0
9.503613070E0,4.150999784E-1,-1.694799900E0,-5.130999684E-1,1.818770538E0
9.513614632E0,4.803999960E-1,-1.869899988E0,-6.300000101E-2,1.931651915E0
9.523638070E0,4.925999939E-1,-1.962299943E0,2.202999890E-1,2.035143215E0
9.533613070E0,4.138000011E-1,-2.114899874E0,3.964999914E-1,2.191174151E0
9.543611507E0,3.104999959E-1,-2.225699902E0,4.159999788E-1,2.285433500E0
9.553611507E0,2.624000013E-1,-2.208899975E0,3.768999875E-1,2.256135293E0
9.563613070E0,1.794999987E-1,-2.108299971E0,2.201999873E-1,2.127354472E0
9.573636507E0,9.529999644E-2,-1.967299938E0,-5.409999937E-2,1.970349701E0
9.583614632E0,1.179999951E-2,-1.775399923E0,-4.167999923E-1,1.823706764E0
9.593611507E0,-5.429999903E-2,-1.557099938E0,-8.384000063E-1,1.769300223E0
9.603613070E0,-1.682000011E-1,-1.320299983E0,-1.397199988E0,1.929676422E0
9.613613070E0,-2.543999851E-1,-1.064399958E0,-1.877599955E0,2.173257512E0
9.623638070E0,-2.106999904E-1,-8.159999847E-1,-2.259899855E0,2.411928236E0
9.633613070E0,-9.829999506E-2,-5.956000090E-1,-2.504899979E0,2.576611372E0
9.643611507E0,-3.070000000E-2,-4.363999963E-1,-2.661499977E0,2.697215152E0
9.653611507E0,5.469999835E-2,-2.280999869E-1,-2.749500036E0,2.759487660E0
9.663611507E0,1.727999896E-1,-5.659999698E-2,-2.827699900E0,2.833540209E0
9.673639632E0,3.055999875E-1,1.791999936E-1,-2.807899952E0,2.830160089E0
9.683613070E0,3.964000046E-1,3.612000048E-1,-2.709899902E0,2.762454685E0
9.693613070E0,4.912999868E-1,4.347999990E-1,-2.592499971E0,2.674225648E0
9.703614632E0,5.281000137E-1,4.623999894E-1,-2.387199879E0,2.488257751E0
9.713611507E0,5.849999785E-1,4.569000006E-1,-2.201499939E0,2.323270231E0
9.723636507E0,6.042000055E-1,4.122000039E-1,-2.016000032E0,2.144579824E0
9.733611507E0,6.694999933E-1,3.455999792E-1,-1.614399910E0,1.781560175E0
9.743609945E0,7.912999988E-1,2.773000002E-1,-1.134299994E0,1.410562814E0
9.753611507E0,8.738999963E-1,2.442999929E-1,-8.597999811E-1,1.250055878E0
9.763611507E0,9.411999583E-1,2.735999823E-1,-6.829999685E-1,1.194656130E0
9.773636507E0,9.745000005E-1,2.841999829E-1,-6.631000042E-1,1.212485669E0
9.783611507E0,8.971999884E-1,2.576999962E-1,-7.308999896E-1,1.185576612E0
9.793613070E0,8.569999933E-1,2.655999959E-1,-7.597000003E-1,1.175642989E0
9.803611507E0,8.501999974E-1,2.981999815E-1,-7.587999701E-1,1.177939158E0
9.813613070E0,7.989000082E-1,3.185999990E-1,-7.385999560E-1,1.133700612E0
9.823636507E0,7.489999533E-1,3.772999942E-1,-6.689999700E-1,1.072808080E0
9.833611507E0,7.048000097E-1,5.295999646E-1,-6.094999909E-1,1.071778622E0
9.843613070E0,6.830999851E-1,6.911999583E-1,-5.985999703E-1,1.141360984E0
9.853613070E0,5.708000064E-1,8.251000047E-1,-6.272000074E-1,1.183208568E0
9.863614632E0,4.903999865E-1,8.585999608E-1,-6.653000116E-1,1.191767656E0
9.873634945E0,3.868999779E-1,9.722999930E-1,-4.684000015E-1,1.146497898E0
9.883613070E0,2.830999792E-1,1.004699945E0,-2.515999973E-1,1.073717904E0
9.893613070E0,1.781999916E-1,9.398999810E-1,-5.699999630E-3,9.566607033E-1
9.903613070E0,6.459999830E-2,8.980000019E-1,2.599000037E-1,9.370833341E-1
9.913613070E0,-1.150000002E-2,8.276999593E-1,4.760999978E-1,9.549296730E-1
9.923638070E0,-7.750000060E-2,7.461000085E-1,7.117999792E-1,1.034084466E0
9.933613070E0,-1.049999967E-1,6.294999719E-1,1.074800014E0,1.249996114E0
9.943611507E0,-9.009999782E-2,4.787999988E-1,1.349599957E0,1.434847551E0
9.953613070E0,-1.723999977E-1,3.064999878E-1,1.506599903E0,1.547096400E0
9.963613070E0,-6.189999729E-2,2.649999857E-1,1.683399916E0,1.705254198E0
9.973638070E0,9.429999441E-2,2.945999801E-1,1.771899939E0,1.798697037E0
9.983613070E0,1.877999902E-1,3.872999847E-1,1.654599905E0,1.709669840E0
9.993613070E0,2.091999948E-1,5.063999891E-1,1.400099993E0,1.503491130E0
1.000361307E1,2.408999950E-1,6.071999669E-1,1.067899942E0,1.251852585E0
1.001361307E1,2.982999980E-1,6.654999852E-1,7.846999764E-1,1.071273622E0
1.002363807E1,2.606999874E-1,6.891999841E-1,6.693999767E-1,9.955186740E-1
1.003361151E1,2.313999981E-1,6.148999929E-1,8.572999835E-1,1.080097784E0
1.004361307E1,3.161000013E-1,6.491000056E-1,1.183099985E0,1.385992642E0
1.005361463E1,4.188999832E-1,6.894999743E-1,1.331399918E0,1.556763679E0
1.006361307E1,4.578999877E-1,5.816999674E-1,1.440799952E0,1.619861646E0
1.007363651E1,3.094999790E-1,2.384999990E-1,1.804299951E0,1.846123181E0
1.008361307E1,2.624999881E-1,-2.025000006E-1,2.588999987E0,2.610140499E0
1.009361307E1,2.081999928E-1,-6.852999926E-1,3.461299896E0,3.534625905E0
1.010361307E1,1.401999891E-1,-1.079999924E0,3.911199808E0,4.059992588E0
1.011361151E1,2.899999963E-3,-1.272899985E0,3.518399954E0,3.741580016E0
1.012363807E1,7.809999585E-2,-1.193099976E0,2.537899971E0,2.805445317E0
1.013361151E1,7.909999788E-2,-1.215399981E0,1.283499956E0,1.769414044E0
1.014361307E1,-1.377999932E-1,-1.259799957E0,1.380999982E-1,1.274816214E0
1.015361307E1,-2.320999950E-1,-1.159500003E0,-5.174999833E-1,1.290781506E0
1.016361151E1,-3.175999820E-1,-1.157299995E0,-7.613999844E-1,1.421246975E0
1.017363807E1,-4.126999974E-1,-1.254199982E0,-6.143000126E-1,1.456263502E0
1.018361151E1,-3.877999783E-1,-1.416199923E0,-2.039999962E-1,1.482439558E0
1.019361463E1,-2.308999896E-1,-1.565299988E0,1.863999963E-1,1.593180409E0
1.020361307E1,-1.527999938E-1,-1.659899950E0,5.654999614E-1,1.760228931E0
1.021361307E1,-5.480000004E-2,-1.635999918E0,9.062999487E-1,1.871063433E0
1.022363651E1,5.609999970E-2,-1.708799958E0,1.059599996E0,2.011441438E0
1.023361463E1,1.846999973E-1,-1.762799978E0,8.025999665E-1,1.945698990E0
1.024361307E1,3.540999889E-1,-1.697199941E0,2.802000046E-1,1.756242148E0
1.025361307E1,4.623000026E-1,-1.441699982E0,-4.174000025E-1,1.570491290E0
1.026361307E1,4.291999936E-1,-1.094699979E0,-1.066200018E0,1.587250187E0
1.027363651E1,4.739999771E-1,-8.360999823E-1,-1.479099989E0,1.763937622E0
1.028361463E1,4.144999981E-1,-6.640999913E-1,-1.774599910E0,1.939598898E0
1.029361307E1,3.722999990E-1,-5.148000121E-1,-1.981399894E0,2.080762332E0
1.030361307E1,3.921999931E-1,-3.674999774E-1,-1.982599974E0,2.054161562E0
1.031361307E1,3.409000039E-1,-3.112999797E-1,-1.973499894E0,2.026776337E0
1.032363807E1,2.672999799E-1,-2.301999927E-1,-2.013499975E0,2.044168160E0
1.033361307E1,1.621999890E-1,-1.762999892E-1,-2.043299913E0,2.057295569E0
1.034361151E1,9.809999913E-2,-1.127000004E-1,-2.082700014E0,2.088052741E0
1.035361151E1,2.929999866E-2,-5.480000004E-2,-2.092499971E0,2.093422475E0
1.036361463E1,-4.569999874E-2,2.539999969E-2,-2.062999964E0,2.063662400E0
1.037363651E1,-1.019999981E-1,6.689999998E-2,-2.023599863E0,2.027273049E0
1.038361151E1,-1.394999921E-1,1.680999994E-1,-1.915699959E0,1.928114154E0
1.039361151E1,-1.210999936E-1,2.087000012E-1,-1.768599987E0,1.784983701E0
1.040361151E1,-1.845999956E-1,1.202999949E-1,-1.651199937E0,1.665836270E0
1.041361463E1,-2.182999998E-1,1.209999993E-2,-1.553399920E0,1.568710494E0
1.042363651E1,-2.440999895E-1,-7.449999452E-2,-1.406700015E0,1.429664292E0
1.043361151E1,-2.762999833E-1,-8.049999923E-2,-1.259699941E0,1.292155514E0
1.044361463E1,-3.068999946E-1,-1.088999957E-1,-1.112800002E0,1.159469991E0
1.045361307E1,-3.059999943E-1,-1.282999963E-1,-9.362999797E-1,9.933551920E-1
1.046361151E1,-3.127999902E-1,-8.159999549E-2,-8.086999655E-1,8.709179222E-1
1.047370213E1,-2.908999920E-1,-3.049999848E-2,-6.811000109E-1,7.412491349E-1
1.048361307E1,-2.773999870E-1,1.769999973E-2,-5.730999708E-1,6.369518187E-1
1.049361307E1,-2.061999887E-1,7.069999725E-2,-4.454999864E-1,4.959709294E-1
1.050361307E1,-1.238999963E-1,1.722999960E-1,-3.373999894E-1,3.985940924E-1
1.051361307E1,-8.190000057E-2,3.163999915E-1,-2.685000002E-1,4.229761398E-1
1.052363807E1,-1.869999990E-2,5.094000101E-1,-2.386999875E-1,5.628638773E-1
1.053361307E1,6.149999797E-2,7.332999706E-1,-1.991999894E-1,7.623593198E-1
1.054361620E1,5.399999768E-2,9.271000028E-1,-1.693999916E-1,9.439951123E-1
1.055346151E1,1.524000019E-1,1.140399933E0,-3.189999983E-2,1.150980181E0
1.056361151E1,1.907999963E-1,1.339499950E0,-2.180000022E-2,1.353196215E0
1.057363807E1,1.582999974E-1,1.409899950E0,5.659999698E-2,1.419887431E0
1.058361307E1,2.097999901E-1,1.530299902E0,3.506000042E-1,1.583904728E0
1.059361307E1,2.620999813E-1,1.437199950E0,6.053000093E-1,1.581337471E0
1.060361307E1,2.806999981E-1,1.292500019E0,9.675999880E-1,1.638779584E0
1.061361307E1,1.468999982E-1,1.054899931E0,1.379099965E0,1.742501130E0
1.062363807E1,1.207999960E-1,8.284999728E-1,1.760999918E0,1.949903986E0
1.063361307E1,8.989999443E-2,6.585999727E-1,1.966599941E0,2.075897700E0
1.064361307E1,1.549999975E-2,5.611000061E-1,1.966399908E0,2.044945492E0
1.065361151E1,-5.649999902E-2,5.268999934E-1,1.652699947E0,1.735578569E0
1.066361307E1,-3.409999982E-2,5.460000038E-1,1.250899911E0,1.365294621E0
1.067363807E1,-7.449999452E-2,5.396999717E-1,8.393999934E-1,1.000709077E0
1.068361463E1,-1.026000008E-1,5.442999601E-1,6.437999606E-1,8.492747471E-1
1.069361307E1,-7.800000161E-2,5.644999743E-1,5.656999946E-1,8.029699278E-1
1.070361151E1,5.979999900E-2,5.514999628E-1,6.735999584E-1,8.726197069E-1
1.071361307E1,3.093999922E-1,5.095999837E-1,8.499000072E-1,1.038147639E0
1.072363494E1,6.107000113E-1,5.430999994E-1,1.045400023E0,1.326941341E0
1.073361307E1,7.976999879E-1,5.047000051E-1,1.260699987E0,1.574932324E0
1.074361463E1,8.667999506E-1,2.974999845E-1,1.466199994E0,1.729043324E0
1.075361151E1,7.688999772E-1,2.719999850E-2,1.858500004E0,2.011459490E0
1.076361151E1,5.990999937E-1,-3.816999793E-1,2.221799850E0,2.332597319E0
1.077363495E1,4.086999893E-1,-9.357999563E-1,2.594799995E0,2.788502153E0
1.078361463E1,2.417999953E-1,-1.435899973E0,2.458199978E0,2.857100471E0
1.079361307E1,1.309999973E-1,-1.619599938E0,1.791799903E0,2.418845148E0
1.080361307E1,8.859999478E-2,-1.491999984E0,1.046999931E0,1.824862397E0
1.081361307E1,9.709999710E-2,-1.408399940E0,7.037999630E-1,1.577451485E0
1.082363807E1,1.735000014E-1,-1.485099912E0,6.247999668E-1,1.620493442E0
1.083361151E1,1.997999996E-1,-1.631999969E0,5.751000047E-1,1.741862209E0
1.084361151E1,2.441999912E-1,-1.724999905E0,3.976999819E-1,1.787015272E0
1.085361151E1,2.963999808E-1,-1.794999957E0,1.618999988E-1,1.826496483E0
1.086361463E1,3.843999803E-1,-1.865499973E0,-5.409999937E-2,1.905460654E0
1.087363495E1,4.460999966E-1,-1.940499902E0,-2.010999918E-1,2.001246182E0
1.088361307E1,4.071999788E-1,-1.993199944E0,-2.987999916E-1,2.056195340E0
1.089361463E1,3.842999935E-1,-1.975999951E0,-3.964999914E-1,2.051700401E0
1.090361151E1,3.217000067E-1,-1.913599968E0,-5.820999742E-1,2.025881564E0
1.091361307E1,2.849999964E-1,-1.897699952E0,-6.894999743E-1,2.039093014E0
1.092363651E1,2.252999991E-1,-1.835899949E0,-7.673000097E-1,2.002507932E0
1.093361307E1,1.188999936E-1,-1.738099933E0,-9.041999578E-1,1.962831156E0
1.094361307E1,4.710000008E-2,-1.487599969E0,-1.040899992E0,1.816217187E0
1.095361307E1,3.859999776E-2,-1.320500016E0,-1.217000008E0,1.796190210E0
1.096361307E1,-1.217999980E-1,-1.168299913E0,-1.461499929E0,1.875031192E0
1.097363651E1,-4.299999774E-2,-9.916999936E-1,-1.716099977E0,1.982502714E0
1.098361307E1,6.889999658E-2,-8.292999864E-1,-2.029299974E0,2.193295252E0
1.099361307E1,1.551999897E-1,-6.708999872E-1,-2.274199963E0,2.376169039E0
1.100361463E1,2.427999973E-1,-4.351999760E-1,-2.391599894E0,2.442969691E0
1.101361307E1,3.637000024E-1,-2.131000012E-1,-2.371899843E0,2.409065829E0
1.102363807E1,4.636999965E-1,-8.699999750E-2,-2.273999929E0,2.322425966E0
1.103361151E1,5.810999870E-1,2.099999925E-3,-2.185999870E0,2.261918884E0
1.104361307E1,6.265999675E-1,8.320000023E-2,-2.117699862E0,2.210023182E0
1.105361151E1,6.798999906E-1,1.341999918E-1,-1.961199999E0,2.080043045E0
1.106361463E1,7.845999599E-1,1.357000023E-1,-1.746299982E0,1.919264238E0
1.107363494E1,8.427000046E-1,3.700000048E-2,-1.619399905E0,1.825915757E0
1.108361151E1,8.166999817E-1,-5.299999844E-3,-1.482899904E0,1.692932094E0
1.109361151E1,1.052799940E0,1.387999952E-1,-1.404899955E0,1.761078373E0
1.110361307E1,9.616999626E-1,1.724999994E-1,-1.248499990E0,1.585362827E0
1.111361307E1,1.015299916E0,2.356999964E-1,-1.170199990E0,1.567085328E0
1.112363807E1,1.059399962E0,2.732999921E-1,-1.032899976E0,1.504627371E0
1.113361307E1,1.058099985E0,2.534999847E-1,-9.445999861E-1,1.440870207E0
1.114361463E1,9.591999650E-1,1.674999893E-1,-9.443999529E-1,1.356470453E0
1.115361307E1,9.682999849E-1,1.664000005E-1,-7.677999735E-1,1.246920455E0
1.116361307E1,9.262999892E-1,1.138999984E-1,-5.322999954E-1,1.074405959E0
1.117363807E1,8.931999803E-1,1.979999989E-2,-1.889999956E-1,9.131917888E-1
1.118361307E1,8.845999837E-1,2.539999969E-2,2.522000074E-1,9.201995082E-1
1.119361307E1,9.163999557E-1,6.289999932E-2,5.954999924E-1,1.094698831E0
1.120361307E1,9.537999630E-1,1.876999885E-1,7.131999731E-1,1.205661585E0
1.121361307E1,9.865999818E-1,3.919999897E-1,5.859000087E-1,1.212568487E0
1.122363651E1,9.404000044E-1,5.471000075E-1,4.196999967E-1,1.166112633E0
1.123361151E1,7.414000034E-1,6.632999778E-1,3.515000045E-1,1.055079655E0
1.124361620E1,7.473999858E-1,8.748999834E-1,4.502999783E-1,1.235648328E0
1.125361151E1,6.276999712E-1,9.765999913E-1,6.369999647E-1,1.324206839E0
1.126361307E1,5.187999606E-1,1.008399963E0,5.884000063E-1,1.277590878E0
1.127363963E1,3.823999763E-1,9.915999770E-1,6.179000139E-1,1.229349699E0
1.128361463E1,2.787999809E-1,9.396999478E-1,6.866999865E-1,1.196796680E0
1.129361307E1,1.756999940E-1,8.355000019E-1,7.454999685E-1,1.133446489E0
1.130361307E1,1.071999967E-1,8.212999701E-1,8.337999582E-1,1.175265013E0
1.131361463E1,3.629999980E-2,7.603999972E-1,8.140999675E-1,1.114578217E0
1.132363651E1,3.889999911E-2,6.523999572E-1,7.356999516E-1,9.840697805E-1
1.133361151E1,6.619999558E-2,5.706999898E-1,6.571999788E-1,8.729219495E-1
1.134361151E1,8.549999446E-2,5.037999749E-1,4.805999994E-1,7.014991256E-1
1.135361307E1,8.039999753E-2,5.236999989E-1,4.413999915E-1,6.896084403E-1
1.136361151E1,8.579999954E-2,6.502000093E-1,5.099999905E-1,8.307958127E-1
1.137363807E1,1.092999950E-1,7.423999906E-1,5.982999802E-1,9.597224084E-1
1.138361151E1,4.679999873E-2,7.053999901E-1,6.768999696E-1,9.787609283E-1
1.139361463E1,1.300000004E-3,6.231999993E-1,8.633999825E-1,1.064818979E0
1.140361151E1,-3.899999894E-3,4.639999866E-1,1.177399993E0,1.265536227E0
1.141361307E1,3.649999946E-2,2.879999876E-1,1.648199916E0,1.673570795E0
1.142363963E1,-4.490000010E-2,6.499999762E-2,2.138399839E0,2.139858613E0
1.143361307E1,-8.219999820E-2,-3.445000052E-1,2.736199856E0,2.759026412E0
1.144361307E1,1.349999942E-2,-7.634999752E-1,3.352900028E0,3.438757488E0
1.145361307E1,8.370000124E-2,-1.107200027E0,3.802999973E0,3.961780709E0
1.146361307E1,9.489999712E-2,-1.349799991E0,3.771899939E0,4.007267794E0
1.147363807E1,8.129999787E-2,-1.455299973E0,3.339499950E0,3.643729905E0
1.148361307E1,-8.469999582E-2,-1.536799908E0,2.593499899E0,3.015819917E0
1.149361151E1,-8.320000023E-2,-1.321200013E0,1.749899983E0,2.194229174E0
1.150361463E1,3.329999745E-2,-1.066399932E0,8.280999660E-1,1.350580341E0
1.151361463E1,4.160000011E-2,-8.977999687E-1,1.416999996E-1,9.098649536E-1
1.152363651E1,9.809999913E-2,-7.866999507E-1,-4.855999947E-1,9.296923024E-1
1.153361307E1,-6.390000135E-2,-7.195000052E-1,-1.201200008E0,1.401657921E0
1.154361307E1,-2.210000008E-1,-7.519999743E-1,-1.671299934E0,1.845965447E0
1.155361307E1,-3.603000045E-1,-8.357999921E-1,-1.739699960E0,1.963398500E0
1.156361151E1,-4.084999859E-1,-1.000999928E0,-1.376899958E0,1.750636052E0
1.157363807E1,-2.674999833E-1,-1.156000018E0,-7.985999584E-1,1.430263674E0
1.158361307E1,-1.551999897E-1,-1.300300002E0,-2.500000000E-1,1.333179332E0
1.159361307E1,-1.367999911E-1,-1.459199905E0,6.329999864E-2,1.466964721E0
1.160361307E1,-9.200000018E-2,-1.663699985E0,1.510999948E-1,1.673078853E0
1.161361151E1,-4.050000012E-2,-1.776899934E0,9.209999442E-2,1.779746059E0
1.162363807E1,-3.039999865E-2,-1.842999935E0,-5.509999767E-2,1.844074004E0
1.163361151E1,3.229999915E-2,-1.752099991E0,-2.219999880E-1,1.766403596E0
1.164361463E1,9.470000118E-2,-1.678599954E0,-5.261999965E-1,1.761690192E0
1.165361307E1,1.439999975E-2,-1.570599914E0,-8.793999553E-1,1.800093256E0
1.166361151E1,6.329999864E-2,-1.418900013E0,-1.134400010E0,1.817731421E0
1.167363651E1,9.459999949E-2,-1.218999982E0,-1.350199938E0,1.821524084E0
1.168361151E1,1.702999920E-1,-8.922999501E-1,-1.594999909E0,1.835545150E0
1.169361151E1,2.373999953E-1,-6.186000109E-1,-1.849599957E0,1.964699655E0
1.170361307E1,1.894000024E-1,-4.273999929E-1,-2.152400017E0,2.202582336E0
1.171361307E1,1.291999966E-1,-2.541999817E-1,-2.357300043E0,2.374483894E0
1.172363807E1,1.197999939E-1,-1.190999970E-1,-2.434099913E0,2.439954760E0
1.173361307E1,5.150000006E-2,5.790000036E-2,-2.315299988E0,2.316596360E0
1.174361307E1,1.568999887E-1,2.369999886E-1,-2.058699846E0,2.078228009E0
1.175361151E1,1.024999991E-1,3.263999820E-1,-1.822499990E0,1.854332606E0
1.176361151E1,6.879999489E-2,3.647999763E-1,-1.625299931E0,1.667156959E0
1.177378338E1,3.799999878E-2,3.818999827E-1,-1.536499977E0,1.583705710E0
1.178361463E1,2.449999936E-2,3.588999808E-1,-1.477199912E0,1.520371345E0
1.179361307E1,-2.989999950E-2,3.563999832E-1,-1.496399999E0,1.538547339E0
1.180361151E1,-9.200000018E-2,3.545999825E-1,-1.535200000E0,1.578304212E0
1.181361463E1,-1.658999920E-1,3.655999899E-1,-1.534899950E0,1.586538375E0
1.182364588E1,-2.197999954E-1,2.443999946E-1,-1.328699946E0,1.368753792E0
1.183361463E1,-2.778999805E-1,9.499999881E-2,-9.757999778E-1,1.019038270E0
1.184360994E1,-3.199999928E-1,-1.789999940E-2,-5.740999579E-1,6.575037392E-1
1.185361307E1,-3.138999939E-1,-1.340000033E-1,-1.626999974E-1,3.781011719E-1
1.186361307E1,-3.289999962E-1,-1.940999925E-1,1.209999993E-1,4.006954011E-1
1.187363026E1,-4.001999795E-1,-2.305999994E-1,2.775999904E-1,5.388860158E-1
1.188361151E1,-4.217000008E-1,-1.634999961E-1,2.870999873E-1,5.357140488E-1
1.189361463E1,-3.919999897E-1,-5.409999937E-2,2.085999995E-1,4.473307073E-1
1.190361307E1,-3.601999879E-1,1.871999949E-1,1.203999966E-1,4.234194476E-1
1.191361307E1,-2.988999784E-1,4.422999918E-1,5.189999938E-2,5.363432574E-1
1.192363026E1,-2.558999956E-1,6.428999901E-1,2.259999886E-2,6.923264872E-1
1.193361307E1,-2.150999904E-1,7.800999880E-1,7.180000097E-2,8.123910618E-1
1.194361463E1,-1.283999979E-1,8.532999754E-1,2.480999976E-1,8.978646982E-1
1.195361151E1,-4.490000010E-2,8.521999717E-1,4.438999891E-1,9.619293124E-1
1.196361463E1,2.850000001E-2,8.127999902E-1,7.763999701E-1,1.124390051E0
1.197363182E1,9.219999611E-2,7.565000057E-1,1.177500010E0,1.402604495E0
1.198361307E1,1.639999896E-1,6.444999576E-1,1.499499917E0,1.640358556E0
1.199361307E1,2.052000016E-1,5.277999640E-1,1.665099978E0,1.758760297E0
1.200361463E1,1.535999924E-1,4.071999788E-1,1.712899923E0,1.767323097E0
1.201361463E1,5.699999630E-3,4.167999923E-1,1.624099970E0,1.676739525E0
1.202363026E1,-1.491999924E-1,4.317999780E-1,1.555199981E0,1.620912965E0
1.203361307E1,-2.471999973E-1,3.296999931E-1,1.408299923E0,1.467350877E0
1.204361463E1,-2.483000010E-1,2.256999910E-1,1.173900008E0,1.220915479E0
1.205361307E1,-2.492999882E-1,2.324000001E-1,9.491999745E-1,1.008534003E0
1.206361463E1,-2.657999992E-1,2.978999913E-1,7.838000059E-1,8.796229270E-1
1.207363182E1,-3.576999903E-1,2.967999876E-1,7.159000039E-1,8.535527700E-1
1.208361307E1,-2.479999959E-1,3.263999820E-1,7.069000006E-1,8.171588322E-1
1.209361307E1,-7.629999518E-2,3.190000057E-1,7.267000079E-1,7.972926655E-1
1.210361151E1,1.779999956E-2,2.303999960E-1,8.538999557E-1,8.846163759E-1
1.211361151E1,4.479999840E-2,1.609999873E-2,1.245700002E0,1.246609299E0
1.212363338E1,1.026999950E-1,-3.035999835E-1,1.862599969E0,1.889973249E0
1.213361307E1,1.977999955E-1,-5.904999971E-1,2.430699825E0,2.509206394E0
1.214361151E1,1.235999987E-1,-7.920999527E-1,2.802799940E0,2.915199273E0
1.215361307E1,1.371999979E-1,-8.969999552E-1,2.704599857E0,2.852769382E0
1.216361463E1,2.416999936E-1,-7.863000035E-1,1.969499946E0,2.134389050E0
1.217363026E1,3.199999928E-1,-7.231000066E-1,8.226000071E-1,1.141027776E0
1.218361307E1,3.941999972E-1,-8.096999526E-1,-1.669999957E-1,9.159130142E-1
1.219361151E1,4.828999937E-1,-8.897999525E-1,-8.138999939E-1,1.298987898E0
1.220361463E1,5.565999746E-1,-1.003099918E0,-1.303900003E0,1.736711892E0
1.221361307E1,7.312999964E-1,-1.104699969E0,-1.450999975E0,1.964831452E0
1.222363026E1,8.349999785E-1,-1.400099993E0,-1.254799962E0,2.057189320E0
1.223361307E1,9.620999694E-1,-1.808699965E0,-8.036999702E-1,2.200673887E0
1.224361307E1,9.581999779E-1,-2.141000032E0,-3.819999993E-1,2.376542096E0
1.225361307E1,9.577999711E-1,-2.296799898E0,2.989999950E-2,2.488687318E0
1.226361463E1,9.229999781E-1,-2.402899981E0,2.850999832E-1,2.589814525E0
1.227363182E1,8.373999596E-1,-2.414599895E0,3.146999776E-1,2.574988820E0
1.228361307E1,6.412000060E-1,-2.343999863E0,2.266999930E-1,2.440669107E0
1.229361307E1,4.821999967E-1,-2.114899874E0,1.385999918E-1,2.173598001E0
1.230361463E1,4.460999966E-1,-1.873099923E0,-6.709999591E-2,1.926657971E0
1.231361307E1,2.696000040E-1,-1.711899996E0,-5.180999637E-1,1.808787807E0
1.232363182E1,2.067999989E-1,-1.449899912E0,-1.008199930E0,1.778044739E0
1.233361151E1,1.955000013E-1,-1.169600010E0,-1.390599966E0,1.827553747E0
1.234361307E1,1.727999896E-1,-9.432999492E-1,-1.724200010E0,1.972952180E0
1.235361307E1,2.319999933E-1,-7.576000094E-1,-1.930599928E0,2.086863161E0
1.236361307E1,2.775000036E-1,-6.017999649E-1,-2.108199835E0,2.209904069E0
1.237363182E1,3.132999837E-1,-4.969999790E-1,-2.256199837E0,2.331438089E0
1.238361307E1,3.667999804E-1,-4.154999852E-1,-2.208799839E0,2.277274510E0
1.239361307E1,4.029999971E-1,-3.208000064E-1,-2.092299938E0,2.154771606E0
1.240361307E1,4.562999904E-1,-1.990000010E-1,-1.799999952E0,1.867568074E0
1.241361307E1,5.686999559E-1,-1.401999891E-1,-1.399099946E0,1.516758496E0
1.242363026E1,6.597999930E-1,-7.000000030E-2,-1.008399963E0,1.207106672E0
1.243361307E1,7.060999870E-1,-7.639999688E-2,-7.835999727E-1,1.057564688E0
1.244361307E1,7.834999561E-1,-9.730000049E-2,-6.665999889E-1,1.033293287E0
1.245361151E1,8.538999557E-1,-1.410999894E-1,-5.785999894E-1,1.041072663E0
1.246361151E1,8.493999839E-1,-1.906999946E-1,-5.101000071E-1,1.008984062E0
1.247363182E1,8.443999887E-1,-1.885999888E-1,-3.533000052E-1,9.345598912E-1
1.248361307E1,8.241999745E-1,-2.298999876E-1,-1.668999940E-1,8.717885124E-1
1.249361307E1,8.010999560E-1,-2.877999842E-1,9.599999525E-3,8.512826384E-1
1.250361307E1,7.401999831E-1,-3.231000006E-1,1.371999979E-1,8.192151517E-1
1.251361307E1,6.258999705E-1,-4.244999886E-1,1.666999906E-1,7.744287574E-1
1.252363338E1,4.723999798E-1,-5.072999597E-1,1.275999993E-1,7.048381019E-1
1.253361151E1,4.244000018E-1,-4.365999997E-1,1.472000033E-1,6.264205953E-1
1.254361463E1,1.982000023E-1,-4.055999815E-1,3.726999760E-1,5.854057209E-1
1.255361151E1,9.959999472E-2,-4.360999763E-1,6.374999881E-1,7.787872515E-1
1.256361151E1,-2.809999883E-2,-4.915999770E-1,8.042999506E-1,9.430580883E-1
1.257363338E1,-2.749999985E-2,-4.890999794E-1,8.729999661E-1,1.001051438E0
1.258361151E1,3.390000015E-2,-4.645999968E-1,8.046999574E-1,9.298087913E-1
1.259361151E1,2.779999934E-2,-4.167999923E-1,5.598999858E-1,6.985578485E-1
1.260361151E1,6.300000008E-3,-3.644999862E-1,3.154000044E-1,4.820550723E-1
1.261361307E1,-2.740000002E-2,-2.958999872E-1,-3.720000014E-2,2.994852291E-1
1.262363026E1,-2.149999887E-2,-2.784999907E-1,-3.603000045E-1,4.558953696E-1
1.263361307E1,6.809999794E-2,-3.033999801E-1,-5.464000106E-1,6.286828526E-1
1.264361463E1,1.338000000E-1,-3.944999874E-1,-6.053000093E-1,7.347930193E-1
1.265361307E1,2.467999905E-1,-4.912999868E-1,-4.388999939E-1,7.035048806E-1
1.266361307E1,4.236999750E-1,-5.062999725E-1,-2.333999872E-1,7.002405908E-1
1.267363182E1,5.062999725E-1,-5.126000047E-1,-2.043000013E-1,7.488904576E-1
1.268361307E1,5.412999988E-1,-4.888999760E-1,-2.241999954E-1,7.630822453E-1
1.269361151E1,5.512999892E-1,-4.675000012E-1,-1.850000024E-1,7.461319790E-1
1.270361307E1,5.162000060E-1,-4.574999809E-1,7.979999483E-2,6.943606541E-1
1.271361307E1,5.119000077E-1,-4.702000022E-1,4.135999978E-1,8.088229832E-1
1.272363182E1,4.466999769E-1,-5.008000135E-1,6.202999949E-1,9.138455048E-1
1.273361307E1,2.330999970E-1,-6.202999949E-1,7.093999982E-1,9.707502510E-1
1.274361307E1,-6.179999933E-2,-9.170999527E-1,8.382999897E-1,1.244041171E0
1.275361307E1,-2.496999949E-1,-1.325500011E0,1.378499985E0,1.928616752E0
1.276361463E1,-1.762999892E-1,-1.704299927E0,1.948199987E0,2.594456228E0
1.277363026E1,-1.269000024E-1,-1.947699904E0,2.144899845E0,2.900040323E0
1.278361151E1,-3.140999973E-1,-2.110699892E0,1.988799930E0,2.917025540E0
1.279361151E1,-3.341999948E-1,-2.095099926E0,1.567499995E0,2.637838049E0
1.280361151E1,-2.338999957E-1,-1.893299937E0,9.307000041E-1,2.122615452E0
1.281380370E1,-1.521999985E-1,-1.888299942E0,2.838000059E-1,1.915563613E0
1.282363182E1,-1.014999971E-1,-1.807599902E0,-1.671999991E-1,1.818151670E0
1.283361307E1,1.314999908E-1,-1.661199927E0,-2.852999866E-1,1.690642933E0
1.284361463E1,3.224000037E-1,-1.629099965E0,-3.938999772E-1,1.706770533E0
1.285361151E1,3.470000029E-1,-1.673099995E0,-4.926999807E-1,1.778321080E0
1.286361151E1,3.350999951E-1,-1.597599983E0,-5.325999856E-1,1.717055753E0
1.287363026E1,3.940999806E-1,-1.521099925E0,-5.526999831E-1,1.665694164E0
1.288360995E1,3.577999771E-1,-1.523399949E0,-4.549999833E-1,1.629660459E0
1.289361151E1,3.440999985E-1,-1.538499951E0,-2.588999867E-1,1.597628277E0
1.290361463E1,3.912999928E-1,-1.588199973E0,-6.260000169E-2,1.636891444E0
1.291361463E1,3.314999938E-1,-1.684499979E0,8.479999751E-2,1.718901819E0
1.292363026E1,1.916999966E-1,-1.759699941E0,1.833999902E-1,1.779586561E0
1.293361307E1,8.709999919E-2,-1.881399989E0,2.427999973E-1,1.899000834E0
1.294361151E1,-3.280000016E-2,-2.018800020E0,2.333999872E-1,2.032511972E0
1.295361307E1,-1.773999929E-1,-2.198799849E0,1.454000026E-1,2.210731257E0
1.296361307E1,-2.070999891E-1,-2.349599838E0,6.719999760E-2,2.359666427E0
1.297363182E1,-2.465999871E-1,-2.399299860E0,2.819999866E-2,2.412104188E0
1.298361307E1,-2.137999982E-1,-2.424900055E0,-4.010000080E-2,2.434637288E0
1.299365526E1,-3.224999905E-1,-2.475899935E0,-1.965999901E-1,2.504543529E0
1.300361307E1,-2.987999916E-1,-2.356899977E0,-3.628000021E-1,2.403306634E0
1.301360994E1,-2.414999902E-1,-2.275099993E0,-5.189999938E-1,2.346010063E0
1.302363182E1,-2.207999974E-1,-2.192100048E0,-7.339999676E-1,2.322242712E0
1.303361307E1,-2.083999962E-1,-2.077499866E0,-9.685999751E-1,2.301656396E0
1.304361307E1,-1.366000026E-1,-1.901299953E0,-1.232599974E0,2.270000830E0
1.305361307E1,-1.049999967E-1,-1.731899977E0,-1.359599948E0,2.204317252E0
1.306361151E1,-9.629999846E-2,-1.629499912E0,-1.369099975E0,2.130487830E0
1.307363338E1,-3.399999812E-2,-1.614599943E0,-1.290599942E0,2.067301910E0
1.308361463E1,4.289999977E-2,-1.649500012E0,-1.124199986E0,1.996626232E0
1.309361151E1,9.629999846E-2,-1.735299945E0,-8.989999890E-1,1.956716783E0
1.310361307E1,9.869999439E-2,-1.832599998E0,-6.934999824E-1,1.961914031E0
1.311361307E1,7.189999521E-2,-1.891499996E0,-4.585999846E-1,1.947628248E0
1.312363182E1,4.759999737E-2,-2.007999897E0,-2.038999945E-1,2.018886959E0
1.313361307E1,-2.300000051E-3,-2.122499943E0,5.079999939E-2,2.123109026E0
1.314361307E1,-2.809999883E-2,-2.176199913E0,2.272999883E-1,2.188218672E0
1.315361307E1,-6.939999759E-2,-2.169999838E0,3.157999814E-1,2.193956537E0
1.316361307E1,-1.185999960E-1,-2.164099932E0,3.650999963E-1,2.197883637E0
1.317363182E1,-1.968999952E-1,-2.140100002E0,3.360999823E-1,2.175261094E0
1.318361151E1,-2.284999937E-1,-2.128799915E0,2.972999811E-1,2.161570865E0
1.319361151E1,-2.140999883E-1,-2.071500063E0,2.289000005E-1,2.095076735E0
1.320361307E1,-2.325999886E-1,-2.006599903E0,1.507000029E-1,2.025649628E0
1.321361307E1,-2.237999886E-1,-1.942199945E0,2.329999954E-2,1.955190516E0
1.322363182E1,-2.060000002E-1,-1.905999899E0,-8.449999988E-2,1.918961142E0
1.323361307E1,-1.482999921E-1,-1.897199988E0,-1.923999935E-1,1.912688799E0
1.324361463E1,-8.009999990E-2,-1.866699934E0,-3.590999842E-1,1.902613322E0
1.325361307E1,-1.179999951E-2,-1.825299978E0,-5.259999633E-1,1.899614490E0
1.326361307E1,6.480000168E-2,-1.832299948E0,-6.241999865E-1,1.936788001E0
1.327363338E1,1.292999983E-1,-1.898499966E0,-6.441999674E-1,2.008983377E0
1.328361307E1,1.913999915E-1,-1.927299976E0,-6.445999742E-1,2.041232050E0
1.329361307E1,2.513999939E-1,-1.949000001E0,-5.762999654E-1,2.047907374E0
1.330361151E1,2.809999883E-1,-1.954399943E0,-4.491999745E-1,2.024949567E0
1.331361307E1,2.718999982E-1,-2.002599955E0,-3.513000011E-1,2.051279571E0
1.332363182E1,2.750000060E-1,-2.092999935E0,-2.824999988E-1,2.129807499E0
1.333361463E1,2.721000016E-1,-2.175099850E0,-2.330999970E-1,2.204412252E0
1.334361463E1,2.827999890E-1,-2.197999954E0,-2.422999889E-1,2.229324767E0
1.335361307E1,2.673999965E-1,-2.238499880E0,-2.415999919E-1,2.267323318E0
1.336361151E1,2.349999994E-1,-2.207900047E0,-2.113999873E-1,2.230411974E0
1.337363026E1,3.711999953E-1,-2.165099859E0,-2.106999904E-1,2.206771697E0
1.338361307E1,2.631999850E-1,-2.188799858E0,-3.079999983E-1,2.225979122E0
1.339361151E1,1.933999956E-1,-2.130699873E0,-1.506000012E-1,2.144753102E0
1.340361307E1,1.393999904E-1,-2.158400059E0,2.220999897E-1,2.174270355E0
1.341361307E1,5.339999869E-2,-2.224400043E0,5.654000044E-1,2.295753532E0
1.342363338E1,2.559999935E-2,-2.280099869E0,7.221999764E-1,2.391878671E0
1.343361151E1,1.335999966E-1,-2.205600023E0,8.690999746E-1,2.374416810E0
1.344361307E1,2.691999972E-1,-2.096999884E0,1.045099974E0,2.358412836E0
1.345361307E1,4.136999846E-1,-2.011699915E0,9.362999797E-1,2.257153490E0
1.346361307E1,5.264999866E-1,-1.860099912E0,7.389999628E-1,2.069612249E0
1.347363338E1,5.877000093E-1,-1.642199993E0,5.607999563E-1,1.832132285E0
1.348361463E1,6.478999853E-1,-1.319800019E0,3.825999796E-1,1.519219940E0
1.349361307E1,6.696000099E-1,-8.654999733E-1,9.649999440E-2,1.098529301E0
1.350361307E1,6.251999736E-1,-3.685999811E-1,-1.990000010E-1,7.525569436E-1
1.351361307E1,6.243000031E-1,4.380000010E-2,-3.373000026E-1,7.109431943E-1
1.352367244E1,6.098999977E-1,3.607999980E-1,-4.064999819E-1,8.169436217E-1
1.353361307E1,5.812999606E-1,7.761999965E-1,-3.475999832E-1,1.030156215E0
1.354361463E1,6.161000133E-1,1.179199934E0,-2.685000002E-1,1.357270777E0
1.355361151E1,5.162999630E-1,1.391099930E0,-1.791999936E-1,1.494602725E0
1.356361463E1,2.504000068E-1,1.500399947E0,-1.300000004E-3,1.521151490E0
1.357363026E1,3.189999983E-2,1.547599912E0,4.019999802E-1,1.599277049E0
1.358361307E1,-9.160000086E-2,1.495100021E0,9.230999947E-1,1.759496585E0
1.359361151E1,-1.695999950E-1,1.176800013E0,1.189100027E0,1.681541347E0
1.360360994E1,-2.721000016E-1,6.058999896E-1,1.386299968E0,1.537199014E0
1.361361307E1,-4.150999784E-1,2.999999933E-2,1.769400001E0,1.817686539E0
1.362363026E1,-2.590000033E-1,-1.973000020E-1,2.553999901E0,2.574669646E0
1.363361151E1,-1.713999957E-1,-1.284999996E-1,3.063699961E0,3.071180173E0
1.364361307E1,-1.449999958E-1,-2.290000021E-2,2.857699871E0,2.861467799E0
1.365361307E1,-5.590000004E-2,2.556000054E-1,2.289199829E0,2.304103303E0
1.366361307E1,1.271999925E-1,4.803999960E-1,1.603399992E0,1.678646934E0
1.367363182E1,2.096000016E-1,7.185999751E-1,8.392999768E-1,1.124607725E0
1.368361307E1,2.478999943E-1,9.114999771E-1,9.489999712E-2,9.493643267E-1
1.369361307E1,3.411999941E-1,1.069399953E0,-5.022999644E-1,1.229771910E0
1.370361307E1,4.901999831E-1,1.213999987E0,-1.040599942E0,1.672405522E0
1.371361307E1,5.737999678E-1,1.307600021E0,-1.451299906E0,2.036009734E0
1.372363338E1,6.852999926E-1,1.389899969E0,-1.646399975E0,2.260993339E0
1.373361307E1,8.106999993E-1,1.401299953E0,-1.724299908E0,2.365182069E0
1.374361307E1,8.409000039E-1,1.272599936E0,-1.773199916E0,2.338987250E0
1.375361307E1,8.134999871E-1,1.072799921E0,-1.763799906E0,2.218934881E0
1.376361151E1,8.172999620E-1,8.414999843E-1,-1.686299920E0,2.054192998E0
1.377363182E1,7.673999667E-1,5.892999768E-1,-1.461799979E0,1.753007801E0
1.378361307E1,7.254999876E-1,3.350999951E-1,-1.070699930E0,1.336054108E0
1.379361151E1,7.351999879E-1,5.700000003E-2,-7.483999729E-1,1.050652436E0
1.380361151E1,7.301999927E-1,-1.884000003E-1,-5.340999961E-1,9.240938238E-1
1.381361307E1,6.915999651E-1,-3.822000027E-1,-5.062999725E-1,9.384705728E-1
1.382363182E1,6.965999603E-1,-5.618999600E-1,-4.296999872E-1,9.927865575E-1
1.383361307E1,6.665999889E-1,-7.842999697E-1,-3.236999810E-1,1.079010503E0
1.384361307E1,6.101999879E-1,-9.884999990E-1,-2.960000038E-1,1.198787836E0
1.385361307E1,6.514999866E-1,-1.152499914E0,-2.092999965E-1,1.340341290E0
1.386361151E1,6.026999950E-1,-1.342599988E0,-8.329999447E-2,1.474028799E0
1.387363338E1,5.618999600E-1,-1.498899937E0,8.219999820E-2,1.602869123E0
1.388361307E1,5.694000125E-1,-1.611699939E0,2.380999923E-1,1.725828692E0
1.389361307E1,6.067999601E-1,-1.662999988E0,2.666999996E-1,1.790224578E0
1.390361151E1,6.664999723E-1,-1.614699960E0,1.483999938E-1,1.753140249E0
1.391360995E1,6.904000044E-1,-1.448400021E0,-1.462000012E-1,1.611176349E0
1.392363026E1,6.294999719E-1,-1.281700015E0,-5.487999916E-1,1.529773373E0
1.393361307E1,5.906000137E-1,-1.143000007E0,-8.531000018E-1,1.543708847E0
1.394361307E1,5.823000073E-1,-1.021999955E0,-1.059299946E0,1.582931958E0
1.395364588E1,6.143000126E-1,-9.386000037E-1,-1.147699952E0,1.604851910E0
1.396361307E1,5.985999703E-1,-8.831999898E-1,-1.167299986E0,1.581440294E0
1.397363182E1,5.546000004E-1,-8.563999534E-1,-1.108500004E0,1.506577014E0
1.398361307E1,4.819999933E-1,-8.399999738E-1,-9.907999635E-1,1.385499375E0
1.399361307E1,4.301999807E-1,-8.062999845E-1,-8.241999745E-1,1.230649132E0
1.400361307E1,3.605999947E-1,-7.958999872E-1,-7.066000104E-1,1.123731605E0
1.401361307E1,3.423999846E-1,-7.990999818E-1,-7.166999578E-1,1.126701984E0
1.402363182E1,3.269999921E-1,-8.046000004E-1,-8.148999810E-1,1.190954296E0
1.403361307E1,2.845000029E-1,-8.789999485E-1,-9.326999784E-1,1.312825354E0
1.404375995E1,2.750999928E-1,-9.835999608E-1,-1.020900011E0,1.444086466E0
1.405372713E1,2.382999957E-1,-1.158399940E0,-9.716999531E-1,1.530646304E0
1.406361151E1,2.613999844E-1,-1.253299952E0,-7.949999571E-1,1.507022114E0
1.407363338E1,2.547999918E-1,-1.434299946E0,-5.985999703E-1,1.574948029E0
1.408361151E1,1.620000005E-1,-1.467399955E0,-5.001000166E-1,1.558719556E0
1.409361151E1,2.965999842E-1,-1.353099942E0,-3.720999956E-1,1.434332392E0
1.410361151E1,3.762999773E-1,-1.189800024E0,-4.890999794E-1,1.340315097E0
1.411361151E1,3.919999897E-1,-9.855999947E-1,-8.411999941E-1,1.353768360E0
1.412363182E1,4.324999750E-1,-7.954999804E-1,-1.212399960E0,1.513205244E0
1.413361307E1,3.700999916E-1,-6.067999601E-1,-1.553699970E0,1.708556055E0
1.414361151E1,2.769999802E-1,-4.470999837E-1,-1.462999940E0,1.554669164E0
1.415361151E1,1.184000000E-1,-4.154999852E-1,-1.087899923E0,1.170549034E0
1.416361151E1,3.819999844E-2,-4.174000025E-1,-3.107999861E-1,5.218032515E-1
1.417363338E1,6.729999930E-2,-5.360000134E-1,5.640000105E-1,7.809745937E-1
1.418361307E1,-2.238999903E-1,-7.655000091E-1,1.389500022E0,1.602133509E0
1.419361463E1,-2.483999878E-1,-8.017999530E-1,2.538100004E0,2.673300834E0
1.420361151E1,-3.931999803E-1,-8.032000065E-1,3.647300005E0,3.755334047E0
1.421361307E1,-3.396999836E-1,-7.026999593E-1,4.305200100E0,4.375377837E0
1.422363182E1,-3.577999771E-1,-3.714999855E-1,4.149300098E0,4.181234790E0
1.423361463E1,-3.680999875E-1,-2.979999967E-2,3.582099915E0,3.601086702E0
1.424361151E1,-3.416999876E-1,2.997999787E-1,2.917699814E0,2.952898764E0
1.425361151E1,-3.685999811E-1,6.006999612E-1,2.519199848E0,2.615927037E0
1.426360994E1,-3.731999993E-1,8.802999854E-1,2.327600002E0,2.516332266E0
1.427363026E1,-3.675999939E-1,1.160499930E0,2.185299873E0,2.501484635E0
1.428361463E1,-4.228999913E-1,1.316100001E0,1.993599892E0,2.425985190E0
1.429361151E1,-4.431999922E-1,1.432199955E0,1.928499937E0,2.442690105E0
1.430361307E1,-3.885000050E-1,1.401700020E0,1.813399911E0,2.324675125E0
1.431361307E1,-3.763999939E-1,1.323300004E0,1.687600017E0,2.177336371E0
1.432363026E1,-3.583000004E-1,1.268700004E0,1.580699921E0,2.058298042E0
1.433361307E1,-2.469999939E-1,1.288200021E0,1.473099947E0,1.972432951E0
1.434361307E1,-1.412999928E-1,1.303399920E0,1.217599988E0,1.789236365E0
1.435361307E1,3.570000082E-2,1.255800009E0,8.435999751E-1,1.513264375E0
1.436361463E1,1.278999895E-1,1.136500001E0,4.099999964E-1,1.214944713E0
1.437363182E1,2.342000008E-1,1.064299941E0,-5.339999869E-2,1.091070834E0
1.438361151E1,2.690999806E-1,9.914000034E-1,-4.581999779E-1,1.124827092E0
1.439361307E1,3.549999893E-1,9.580000043E-1,-8.235999942E-1,1.312290346E0
1.440361307E1,4.465000033E-1,9.351999760E-1,-1.110000014E0,1.518572119E0
1.441361463E1,4.281999767E-1,9.323999882E-1,-1.229099989E0,1.601065814E0
1.442363182E1,4.176999927E-1,8.493999839E-1,-1.298900008E0,1.607200936E0
1.443361307E1,4.533999860E-1,8.011999726E-1,-1.299899936E0,1.592869356E0
1.444361307E1,4.150999784E-1,7.462999821E-1,-1.350000024E0,1.597426593E0
1.445361151E1,4.072999954E-1,6.444999576E-1,-1.429899931E0,1.620458976E0
1.446346307E1,4.077999890E-1,5.645999908E-1,-1.588699937E0,1.734658892E0
1.447363026E1,3.847000003E-1,4.503999949E-1,-1.767499924E0,1.864111109E0
1.448361151E1,3.283999860E-1,3.249999881E-1,-1.916899920E0,1.971795335E0
1.449361463E1,2.590999901E-1,1.133999974E-1,-1.889699936E0,1.910748077E0
1.450361307E1,1.964000016E-1,-7.519999892E-2,-1.725099921E0,1.737871612E0
1.451361307E1,1.806000024E-1,-2.803999782E-1,-1.403499961E0,1.442585404E0
1.452363182E1,1.920000017E-1,-4.925999939E-1,-1.003199935E0,1.133988035E0
1.453361307E1,1.837999970E-1,-7.912999988E-1,-7.106999755E-1,1.079366751E0
1.454361307E1,8.810000122E-2,-1.069999933E0,-4.277999997E-1,1.155713765E0
1.455361307E1,7.859999686E-2,-1.279600024E0,-5.659999698E-2,1.283260590E0
1.456361307E1,1.360999942E-1,-1.577199936E0,1.968999952E-1,1.595259369E0
1.457363182E1,3.579999879E-2,-1.863599896E0,3.131999969E-1,1.890074192E0
1.458361151E1,4.199999943E-2,-1.940599918E0,3.413999975E-1,1.970849056E0
1.459361307E1,1.076999977E-1,-1.944700003E0,2.912999988E-1,1.969343312E0
1.460361151E1,7.979999483E-2,-1.875999928E0,7.479999959E-2,1.879185677E0
1.461361307E1,8.699999750E-2,-1.598399997E0,-2.881999910E-1,1.626502623E0
1.462363182E1,6.909999996E-2,-1.278999925E0,-6.706999540E-1,1.445840256E0
1.463361151E1,6.250000000E-2,-1.074699998E0,-8.568999767E-1,1.375922929E0
1.464361151E1,1.149000004E-1,-9.663999677E-1,-9.646999836E-1,1.370320023E0
1.465361307E1,1.673000008E-1,-8.867999911E-1,-1.033200026E0,1.371825720E0
1.466361307E1,1.689999998E-1,-7.968999743E-1,-9.840999842E-1,1.277522347E0
1.467363182E1,1.193000004E-1,-7.560999990E-1,-9.056999683E-1,1.185838156E0
1.468361307E1,4.820000008E-2,-7.746999860E-1,-7.881999612E-1,1.106228949E0
1.469361151E1,4.799999762E-3,-8.337000012E-1,-6.904000044E-1,1.082465195E0
1.470361307E1,4.800000042E-2,-7.664999962E-1,-4.945999980E-1,9.134853049E-1
1.471361151E1,6.059999764E-2,-7.694000006E-1,-4.851000011E-1,9.115759604E-1
1.472363026E1,-1.399999950E-2,-8.619999886E-1,-5.345000029E-1,1.014361983E0
1.473361463E1,-3.999999911E-2,-9.551999569E-1,-5.151000023E-1,1.085971901E0
1.474361463E1,-6.629999727E-2,-9.700999856E-1,-4.860000014E-1,1.087053666E0
1.475361151E1,-1.410999894E-1,-9.940999746E-1,-4.567999840E-1,1.103091198E0
1.476361463E1,-1.855999976E-1,-1.007699966E0,-3.980999887E-1,1.099268021E0
1.477363182E1,-1.990999877E-1,-9.814999700E-1,-3.883999884E-1,1.074168305E0
1.478361151E1,-2.403999865E-1,-9.065999985E-1,-4.373999834E-1,1.034907946E0
1.479361307E1,-2.402999997E-1,-7.921999693E-1,-6.137999892E-1,1.030570380E0
1.480361307E1,-2.577999830E-1,-6.367999911E-1,-7.703999877E-1,1.032226332E0
1.481361307E1,-2.056999952E-1,-4.685999751E-1,-8.877999783E-1,1.024737638E0
1.482363338E1,-1.728999913E-1,-3.258000016E-1,-1.073899984E0,1.135474009E0
1.483361463E1,-4.230000079E-2,-1.482999921E-1,-1.152199984E0,1.162474507E0
1.484361463E1,-9.039999545E-2,-1.517999917E-1,-1.152199984E0,1.165667276E0
1.485361307E1,-1.735000014E-1,-2.281999886E-1,-7.505999804E-1,8.034785721E-1
1.486361307E1,-1.259000003E-1,-3.680000007E-1,-2.610000074E-1,4.683970692E-1
1.487363182E1,-6.719999760E-2,-5.324000120E-1,5.123999715E-1,7.419699072E-1
1.488361307E1,-5.920000002E-2,-8.991999626E-1,1.795300007E0,2.008772592E0
1.489361307E1,-9.799999744E-2,-1.206900001E0,3.029099941E0,3.262155432E0
1.490361307E1,1.449999958E-2,-1.272300005E0,3.939299822E0,4.139690887E0
1.491361307E1,2.356999964E-1,-1.037699938E0,4.565399647E0,4.687776614E0
1.492363338E1,4.303999841E-1,-7.197999954E-1,4.368299961E0,4.448078319E0
1.493361151E1,5.684999824E-1,-3.370999992E-1,3.328599930E0,3.393583082E0
1.494361307E1,4.481000006E-1,4.699999839E-2,1.916899920E0,1.969138876E0
1.495361307E1,1.533999890E-1,3.784999847E-1,6.139999628E-1,7.374210123E-1
1.496361307E1,-1.499999966E-2,6.682999730E-1,-2.763999999E-1,7.233580122E-1
1.497363182E1,-7.689999789E-2,9.549999833E-1,-8.330999613E-1,1.269643306E0
1.498361307E1,2.979999967E-2,1.159099936E0,-9.681999683E-1,1.510566742E0
1.499361151E1,1.017000005E-1,1.110599995E0,-8.191999793E-1,1.383786054E0
1.500361151E1,1.463000029E-1,1.002200007E0,-3.964999914E-1,1.087667591E0
1.501361307E1,3.233000040E-1,8.601999879E-1,2.019999921E-1,9.408883614E-1
1.502363026E1,3.549000025E-1,7.505999804E-1,6.137999892E-1,1.032523496E0
1.503361151E1,3.466999829E-1,6.919999719E-1,7.410999537E-1,1.071584799E0
1.504361307E1,3.025999963E-1,5.595999956E-1,8.094999790E-1,1.029567447E0
1.505361151E1,3.808999956E-1,5.123000145E-1,8.780999780E-1,1.085631467E0
1.506361307E1,4.263999760E-1,4.723999798E-1,9.174999595E-1,1.116595207E0
1.507363026E1,4.678999782E-1,4.004999995E-1,8.687999845E-1,1.064961996E0
1.508361151E1,5.031999946E-1,3.455999792E-1,8.005999923E-1,1.006781966E0
1.509361463E1,4.817999899E-1,3.572999835E-1,6.636999846E-1,8.945905086E-1
1.510361151E1,4.526999891E-1,4.268999994E-1,3.993999958E-1,7.393924846E-1
1.511361151E1,4.161999822E-1,5.063999891E-1,1.759999990E-2,6.557233671E-1
1.512363026E1,4.020999968E-1,5.467999578E-1,-4.325999916E-1,8.048710170E-1
1.513361151E1,3.608999848E-1,5.871999860E-1,-9.219999909E-1,1.151145780E0
1.514361151E1,2.615000010E-1,6.276999712E-1,-1.313300014E0,1.478900412E0
1.515361307E1,2.883999944E-1,7.073000073E-1,-1.528100014E0,1.708372766E0
1.516361307E1,2.933000028E-1,7.073999643E-1,-1.752799988E0,1.912785246E0
1.517363026E1,3.908999860E-1,7.744999528E-1,-1.742599964E0,1.946614397E0
1.518361307E1,4.316999912E-1,7.705000043E-1,-1.615099907E0,1.840810378E0
1.519361307E1,5.234999657E-1,7.240999937E-1,-1.449000001E0,1.702343684E0
1.520361307E1,5.393999815E-1,6.161999702E-1,-1.234399915E0,1.481350024E0
1.521361151E1,6.003999710E-1,5.072000027E-1,-1.019999981E0,1.287684716E0
1.522363026E1,6.331999898E-1,4.083999991E-1,-8.740999699E-1,1.154029265E0
1.523361151E1,6.603999734E-1,3.307999969E-1,-8.356999755E-1,1.115325608E0
1.524361151E1,6.229000092E-1,3.042999804E-1,-8.068999648E-1,1.063809406E0
1.525361307E1,5.970999599E-1,2.105000019E-1,-7.093999982E-1,9.508348807E-1
1.526361151E1,5.903999805E-1,2.809999883E-2,-5.137000084E-1,7.831024490E-1
1.527363026E1,6.010999680E-1,-1.669999957E-1,-3.770999908E-1,7.289818744E-1
1.528361307E1,5.985000134E-1,-3.179999888E-1,-2.800000012E-1,7.332982064E-1
1.529361151E1,5.931000113E-1,-5.126000047E-1,-2.909999788E-1,8.361862089E-1
1.530361151E1,5.572999716E-1,-6.602999568E-1,-3.411999941E-1,9.289761715E-1
1.531361307E1,5.532000065E-1,-7.785999775E-1,-4.991999865E-1,1.077705339E0
1.532363338E1,5.728999972E-1,-8.556999564E-1,-7.843999863E-1,1.294496103E0
1.533361307E1,5.970000029E-1,-8.506000042E-1,-1.069199920E0,1.491012354E0
1.534361307E1,6.069999933E-1,-8.503999710E-1,-1.363600016E0,1.717857417E0
1.535361307E1,6.004999876E-1,-9.235000014E-1,-1.530299902E0,1.885542436E0
1.536361151E1,6.337999701E-1,-1.002099991E0,-1.530099988E0,1.935746049E0
1.537363338E1,6.850999594E-1,-1.058499932E0,-1.314199924E0,1.821237355E0
1.538361307E1,7.245999575E-1,-1.066599965E0,-1.039600015E0,1.656335949E0
1.539361307E1,7.242999673E-1,-1.068099976E0,-9.415999651E-1,1.597516352E0
1.540361307E1,7.264999747E-1,-1.062799931E0,-8.728999496E-1,1.555409987E0
1.541361307E1,7.010999918E-1,-9.906999469E-1,-9.414999485E-1,1.536050044E0
1.542363338E1,6.699999571E-1,-9.175999761E-1,-9.509999752E-1,1.481651312E0
1.543361307E1,6.234999895E-1,-7.924000025E-1,-9.113000035E-1,1.359087082E0
1.544361463E1,6.584999561E-1,-7.129999995E-1,-8.027999997E-1,1.259555093E0
1.545361307E1,7.148000002E-1,-5.921999812E-1,-5.861999989E-1,1.097848030E0
1.546361307E1,8.236999512E-1,-3.233999908E-1,-5.850999951E-1,1.060853980E0
1.547363182E1,8.382999897E-1,-2.489999868E-2,-7.996000051E-1,1.158760998E0
1.548361307E1,6.900999546E-1,1.774999946E-1,-8.959999681E-1,1.144796986E0
1.549361307E1,4.332999885E-1,2.550999820E-1,-6.687999964E-1,8.367307309E-1
1.550361307E1,4.419999942E-2,1.473999918E-1,2.889999934E-2,1.565746067E-1
1.551361307E1,-1.631999910E-1,-1.193999946E-1,8.636999726E-1,8.870559388E-1
1.552363807E1,-2.678000033E-1,-4.397999942E-1,1.560899973E0,1.643639134E0
1.553361307E1,-3.111000061E-1,-7.228999734E-1,2.159499884E0,2.298435845E0
1.554361463E1,-4.102999866E-1,-9.453999996E-1,2.679199934E0,2.870581740E0
1.555361307E1,-5.367000103E-1,-9.262999892E-1,2.982899904E0,3.169190813E0
1.556361307E1,-5.539999604E-1,-6.718999743E-1,3.217599869E0,3.333363834E0
1.557363182E1,-3.623999953E-1,-3.087999821E-1,3.442499876E0,3.475269282E0
1.558361307E1,-1.048999950E-1,9.030000120E-2,3.481199980E0,3.483950545E0
1.559361307E1,8.460000157E-2,2.460999936E-1,3.059299946E0,3.070348274E0
1.560361307E1,8.079999685E-2,3.923999965E-1,2.598599911E0,2.629301788E0
1.561361307E1,1.501999944E-1,5.496000051E-1,2.275599957E0,2.345842144E0
1.562363963E1,8.949999511E-2,4.820999801E-1,2.208199978E0,2.261985363E0
1.563361151E1,-1.105000004E-1,4.614999890E-1,2.454999924E0,2.500443384E0
1.564361151E1,-1.837999970E-1,5.212999582E-1,2.692199945E0,2.748358898E0
1.565361151E1,-2.669999897E-1,6.168999672E-1,2.723299980E0,2.805034286E0
1.566361307E1,-3.411999941E-1,7.170000076E-1,2.440199852E0,2.566141416E0
1.567363026E1,-3.788000047E-1,7.936999798E-1,1.862599969E0,2.059788277E0
1.568361463E1,-3.348999918E-1,1.035799980E0,8.924999833E-1,1.407691665E0
1.569375682E1,-3.429999948E-1,1.218299985E0,-1.068999991E-1,1.270169855E0
1.570361307E1,-3.664000034E-1,1.354499936E0,-1.126199961E0,1.799234668E0
1.571361151E1,-2.973999977E-1,1.512799978E0,-1.909599900E0,2.454298741E0
1.572363182E1,-2.606999874E-1,1.611499906E0,-2.417999983E0,2.917468140E0
1.573361151E1,-9.219999611E-2,1.707499981E0,-2.700999975E0,3.196788684E0
1.574361151E1,-1.799999923E-2,1.788100004E0,-2.827199936E0,3.345248138E0
1.575361307E1,4.699999839E-2,1.742599964E0,-2.826599836E0,3.320923105E0
1.576361307E1,1.130999997E-1,1.568300009E0,-2.679600000E0,3.106865412E0
1.577363182E1,1.313000023E-1,1.340999961E0,-2.445199966E0,2.791867379E0
1.578361307E1,1.511999965E-1,1.137399912E0,-2.044800043E0,2.344727535E0
1.579361463E1,1.754999906E-1,9.169999957E-1,-1.596099973E0,1.849114480E0
1.580361307E1,1.884000003E-1,7.572000027E-1,-1.275200009E0,1.494985441E0
1.581361151E1,2.610999942E-1,6.007999778E-1,-1.140599966E0,1.315333457E0
1.582363807E1,3.161000013E-1,3.535999954E-1,-1.015699983E0,1.120981098E0
1.583361307E1,3.439999819E-1,4.910000041E-2,-7.432999611E-1,8.205130284E-1
1.584361151E1,3.535999954E-1,-2.513999939E-1,-4.607999921E-1,6.329072178E-1
1.585361307E1,2.940999866E-1,-5.368999839E-1,-1.193000004E-1,6.236897345E-1
1.586361307E1,2.611999810E-1,-7.380999923E-1,1.928000003E-1,8.063428978E-1
1.587363026E1,2.383999974E-1,-1.070599914E0,4.659999907E-1,1.191710840E0
1.588361307E1,1.006999984E-1,-1.340499997E0,5.238000154E-1,1.442722145E0
1.589361151E1,8.639999479E-2,-1.442600012E0,3.660999835E-1,1.490834985E0
1.590361151E1,1.577999890E-1,-1.437600017E0,4.199999943E-2,1.446844375E0
1.591361151E1,2.664999962E-1,-1.306900024E0,-4.384999871E-1,1.404027122E0
1.592363807E1,3.227999806E-1,-1.108899951E0,-1.036499977E0,1.551834763E0
1.593361307E1,3.039000034E-1,-9.012999535E-1,-1.487299919E0,1.765434187E0
1.594361307E1,2.364999950E-1,-6.728000045E-1,-1.859499931E0,1.991565236E0
1.595361151E1,1.972000003E-1,-5.884999633E-1,-2.045399904E0,2.137494050E0
1.596361307E1,1.354999989E-1,-5.687999725E-1,-1.995999932E0,2.079882061E0
1.597363651E1,7.019999623E-2,-5.356999636E-1,-1.721199989E0,1.804004405E0
1.598361307E1,1.199999941E-3,-4.905999899E-1,-1.426899910E0,1.508884735E0
1.599361307E1,-7.050000131E-2,-4.538999796E-1,-1.113099933E0,1.204154019E0
1.600361307E1,-9.600000083E-2,-4.550999999E-1,-7.405999899E-1,8.745400820E-1
1.601361307E1,-6.459999830E-2,-4.269999862E-1,-4.073999822E-1,5.936976448E-1
1.602363963E1,-5.419999734E-2,-3.716999888E-1,-2.115999907E-1,4.311300007E-1
1.603361307E1,-1.326999962E-1,-3.689000010E-1,-1.432999969E-1,4.174103363E-1
1.604361463E1,-2.116999924E-1,-4.486999810E-1,-1.045999974E-1,5.070401554E-1
