"Time (s)","Acceleration x (m/s^2)","Acceleration y (m/s^2)","Acceleration z (m/s^2)","Absolute acceleration (m/s^2)"
0.000000000E0,7.507258654E-2,-8.235096186E-2,9.723954201E0,9.724592684E0
1.294836000E-3,7.284119725E-2,-7.541734725E-2,9.720592499E0,9.721157963E0
3.294836000E-3,7.236234844E-2,-7.507258654E-2,9.728675842E0,9.729234597E0
5.294836000E-3,7.698795199E-2,-7.761044055E-2,9.746469498E0,9.747082548E0
7.294836000E-3,8.290641755E-2,-8.527188748E-2,9.758727074E0,9.759451771E0
9.294836000E-3,7.764875144E-2,-8.224561065E-2,9.775459290E0,9.776113645E0
1.129483600E-2,8.078036457E-2,-7.941088080E-2,9.785973549E0,9.786629136E0
1.329483600E-2,8.013872057E-2,-7.226658612E-2,9.774242401E0,9.774838065E0
1.529483600E-2,7.910442352E-2,-7.164409012E-2,9.761035919E0,9.761619364E0
1.729483600E-2,7.203674316E-2,-7.240065932E-2,9.758296967E0,9.758831428E0
1.929483600E-2,7.340622693E-2,-7.131848484E-2,9.746728897E0,9.747266232E0
2.129483600E-2,8.337567747E-2,-6.483498216E-2,9.742245674E0,9.742818168E0
2.329483600E-2,8.592311293E-2,-7.232404500E-2,9.749668121E0,9.750314971E0
2.529483600E-2,8.817365766E-2,-7.820419967E-2,9.763237953E0,9.763949294E0
2.729483600E-2,8.887276798E-2,-8.231265098E-2,9.771359444E0,9.772110269E0
2.929483600E-2,9.012732655E-2,-8.198704571E-2,9.770755768E0,9.771515393E0
3.129483600E-2,8.486966044E-2,-8.534850180E-2,9.770631790E0,9.771373128E0
3.329483600E-2,7.642292231E-2,-8.070375025E-2,9.761132240E0,9.761765013E0
3.529483600E-2,7.399041206E-2,-6.633853912E-2,9.746661186E0,9.747167776E0
3.729483600E-2,7.419151813E-2,-6.169379130E-2,9.734096527E0,9.734574757E0
3.929483600E-2,7.461290061E-2,-6.687483937E-2,9.728896141E0,9.729412082E0
4.129483600E-2,8.393114060E-2,-6.446148455E-2,9.731961250E0,9.732536642E0
4.329483600E-2,9.403466433E-2,-5.816952512E-2,9.745664597E0,9.746291841E0
4.529483600E-2,9.565314651E-2,-5.903143808E-2,9.766629219E0,9.767276004E0
4.729483600E-2,9.494446218E-2,-5.712565407E-2,9.780313492E0,9.780941151E0
4.929483600E-2,9.083601087E-2,-5.976885185E-2,9.781435013E0,9.782039379E0
5.129483600E-2,9.148723632E-2,-6.409756839E-2,9.772958755E0,9.773597150E0
5.329483600E-2,9.154469520E-2,-7.163451612E-2,9.758804321E0,9.759496591E0
5.529639900E-2,9.327810258E-2,-7.236234844E-2,9.745128632E0,9.745843686E0
5.729483600E-2,7.894162089E-2,-8.151777834E-2,9.738951683E0,9.739612765E0
5.929483600E-2,7.293695956E-2,-8.795338869E-2,9.733732224E0,9.734402837E0
6.129483600E-2,7.341580093E-2,-8.100063354E-2,9.731606483E0,9.732220493E0
6.329483600E-2,7.080133259E-2,-7.680599391E-2,9.733799934E0,9.734360439E0
6.529483600E-2,7.099286467E-2,-8.237011731E-2,9.737553596E0,9.738160754E0
6.729483600E-2,7.313807309E-2,-8.078036457E-2,9.746287346E0,9.746896515E0
6.929483600E-2,6.737283617E-2,-8.135497570E-2,9.748758316E0,9.749330563E0
7.133233600E-2,7.065768540E-2,-7.679641992E-2,9.748997688E0,9.749556201E0
7.329483600E-2,7.471824437E-2,-6.791871786E-2,9.740263939E0,9.740787307E0
7.529483600E-2,7.134721428E-2,-6.426995248E-2,9.733243942E0,9.733717619E0
7.729483600E-2,6.196194142E-2,-7.221869379E-2,9.741767883E0,9.742232614E0
7.947139900E-2,5.749914795E-2,-7.795520872E-2,9.746957779E0,9.747439105E0
8.129483600E-2,6.899131835E-2,-8.033025265E-2,9.752666473E0,9.753241312E0
8.329483600E-2,6.692273170E-2,-7.500555366E-2,9.761590958E0,9.762108507E0
8.529483600E-2,6.856035441E-2,-7.634630799E-2,9.764847755E0,9.765386883E0
8.729483600E-2,6.470090151E-2,-8.465897292E-2,9.765306473E0,9.765887766E0
8.947139900E-2,5.504748598E-2,-8.979213983E-2,9.754120827E0,9.754689434E0
9.129483600E-2,5.322789401E-2,-8.982086927E-2,9.746095657E0,9.746654891E0
9.329483600E-2,6.160759553E-2,-8.603803068E-2,9.741480827E0,9.742055571E0
9.529483600E-2,6.835924834E-2,-7.340622693E-2,9.736777306E0,9.737293965E0
9.729483600E-2,6.565858424E-2,-6.526593864E-2,9.734374046E0,9.734814265E0
9.929483600E-2,6.391561031E-2,-6.249824166E-2,9.744420052E0,9.744830085E0
1.012948360E-1,6.725791097E-2,-6.042007357E-2,9.749496460E0,9.749915663E0
1.032963990E-1,6.674076617E-2,-5.736507475E-2,9.741833687E0,9.742231195E0
1.052963990E-1,6.366661191E-2,-5.882074684E-2,9.743644714E0,9.744030256E0
1.074401490E-1,5.855259672E-2,-6.485413015E-2,9.752991676E0,9.753383059E0
1.092948360E-1,7.306145877E-2,-7.124187052E-2,9.753164291E0,9.753698123E0
1.112948360E-1,7.421068102E-2,-7.438305765E-2,9.755538940E0,9.756104760E0
1.132948360E-1,7.320510596E-2,-7.552269846E-2,9.755146027E0,9.755713027E0
1.152948360E-1,7.949706912E-2,-8.085697889E-2,9.745989799E0,9.746649414E0
1.172948360E-1,8.307879418E-2,-7.991845161E-2,9.748786926E0,9.749468477E0
1.192948360E-1,9.282799065E-2,-8.737878501E-2,9.749869347E0,9.750702763E0
1.212963990E-1,9.648633003E-2,-8.591353893E-2,9.751008987E0,9.751864797E0
1.232963990E-1,8.876742423E-2,-8.217857778E-2,9.752838135E0,9.753588296E0
1.252963990E-1,8.676587045E-2,-7.519709319E-2,9.746507645E0,9.747183911E0
1.272963990E-1,8.292556554E-2,-8.245630562E-2,9.745702744E0,9.746404345E0
1.292948360E-1,7.533115894E-2,-8.539638668E-2,9.737773895E0,9.738439699E0
1.312948360E-1,7.378929853E-2,-8.117301017E-2,9.734364510E0,9.734982605E0
1.332948360E-1,6.779421121E-2,-8.487924188E-2,9.730073929E0,9.730680305E0
1.352948360E-1,6.558196992E-2,-8.073247969E-2,9.733473778E0,9.734029510E0
1.372948360E-1,6.824432313E-2,-7.755298167E-2,9.735398293E0,9.735946367E0
1.394432740E-1,6.417418271E-2,-7.638461143E-2,9.735073090E0,9.735584266E0
1.415792110E-1,6.260358542E-2,-7.676768303E-2,9.737428665E0,9.737932506E0
1.433401490E-1,6.906793267E-2,-8.701486886E-2,9.749295235E0,9.749928181E0
1.452948360E-1,7.512047887E-2,-7.936299592E-2,9.755547523E0,9.756159544E0
1.472948360E-1,8.298303187E-2,-7.559931278E-2,9.760365486E0,9.761011006E0
1.492948360E-1,7.649953663E-2,-8.251377195E-2,9.767519951E0,9.768168032E0
1.512948360E-1,7.706456631E-2,-9.067320824E-2,9.772164345E0,9.772888854E0
1.532948360E-1,8.414182067E-2,-9.154469520E-2,9.777344704E0,9.778135289E0
1.552948360E-1,9.043378383E-2,-9.243533760E-2,9.772825241E0,9.773680768E0
1.572948360E-1,9.328767657E-2,-9.311529249E-2,9.769980431E0,9.770869494E0
1.594713990E-1,9.627564251E-2,-8.689995110E-2,9.766943932E0,9.767804992E0
1.612948360E-1,1.011885405E-1,-8.674672246E-2,9.761457443E0,9.762367312E0
1.632948360E-1,1.027399823E-1,-7.773493975E-2,9.760106087E0,9.760956359E0
1.652948360E-1,1.014566869E-1,-7.732313871E-2,9.761284828E0,9.762118306E0
1.672948360E-1,9.789411724E-2,-8.810661733E-2,9.761590958E0,9.762479401E0
1.692948360E-1,8.971552551E-2,-8.816408366E-2,9.759474754E0,9.760285306E0
1.712948360E-1,9.402508289E-2,-7.819462568E-2,9.761936188E0,9.762702149E0
1.732948360E-1,1.011215076E-1,-7.491935790E-2,9.767481804E0,9.768292546E0
1.752948360E-1,9.617029876E-2,-7.148128748E-2,9.762194633E0,9.762930009E0
1.772948360E-1,9.036675096E-2,-7.804139704E-2,9.761811256E0,9.762541453E0
1.792948360E-1,9.382397681E-2,-7.478528470E-2,9.764291763E0,9.765028900E0
1.812948360E-1,9.205226600E-2,-7.286992669E-2,9.770344734E0,9.771050090E0
1.832948360E-1,9.025183320E-2,-7.393294573E-2,9.770506859E0,9.771203393E0
1.852948360E-1,9.607452154E-2,-7.990887761E-2,9.777019501E0,9.777818062E0
1.872948360E-1,9.948386997E-2,-8.197746426E-2,9.782574654E0,9.783423951E0
1.892948360E-1,9.754935652E-2,-7.983226329E-2,9.782986641E0,9.783798684E0
1.912948360E-1,1.015907675E-1,-7.860642672E-2,9.774960518E0,9.775804457E0
1.932948360E-1,1.011789590E-1,-6.947015226E-2,9.770249367E0,9.771020211E0
1.952948360E-1,9.534668922E-2,-7.183562219E-2,9.768533707E0,9.769263131E0
1.972948360E-1,1.005564705E-1,-7.878839225E-2,9.769799232E0,9.770634384E0
1.992948360E-1,9.549991786E-2,-8.145074546E-2,9.767499924E0,9.768306364E0
2.012948360E-1,9.135315567E-2,-8.077079058E-2,9.769961357E0,9.770722299E0
2.032948360E-1,9.383355081E-2,-7.259219140E-2,9.763276100E0,9.763996854E0
2.052948360E-1,8.825027198E-2,-7.077260315E-2,9.761917114E0,9.762572541E0
2.072948360E-1,8.305964619E-2,-6.460513920E-2,9.761917114E0,9.762484237E0
2.092948360E-1,8.269572258E-2,-6.619488448E-2,9.758392334E0,9.758967225E0
2.112948360E-1,7.796478271E-2,-7.190266252E-2,9.761159897E0,9.761736067E0
2.132948360E-1,7.923850417E-2,-7.810843736E-2,9.760499954E0,9.761134105E0
2.152948360E-1,8.238926530E-2,-7.656657696E-2,9.756879807E0,9.757528068E0
2.172948360E-1,8.210196346E-2,-7.321469486E-2,9.755970001E0,9.756590172E0
2.192948360E-1,8.057925105E-2,-8.389282972E-2,9.754102707E0,9.754796289E0
2.212948360E-1,8.156566322E-2,-8.550173044E-2,9.754217148E0,9.754932889E0
2.232948360E-1,8.445785940E-2,-8.496543020E-2,9.753738403E0,9.754474107E0
2.252948360E-1,8.465897292E-2,-8.606676757E-2,9.750845909E0,9.751593233E0
2.272948360E-1,8.347144723E-2,-8.990705758E-2,9.747723579E0,9.748495563E0
2.292948360E-1,8.051221818E-2,-8.764693141E-2,9.745166779E0,9.745893481E0
2.312948360E-1,7.272627205E-2,-8.259038627E-2,9.735523224E0,9.736145168E0
2.332948360E-1,7.362648845E-2,-7.999506593E-2,9.727450371E0,9.728057914E0
2.352948360E-1,6.924030930E-2,-8.256165683E-2,9.732506752E0,9.733103222E0
2.372948360E-1,6.908708066E-2,-7.581000775E-2,9.741720200E0,9.742260140E0
2.394713990E-1,7.335833460E-2,-7.616434246E-2,9.747848511E0,9.748422080E0
2.412948360E-1,7.716991007E-2,-8.152735978E-2,9.753191948E0,9.753837967E0
2.432948360E-1,8.006210625E-2,-7.996633649E-2,9.750769615E0,9.751426185E0
2.452948360E-1,8.021533489E-2,-7.897992432E-2,9.752080917E0,9.752730620E0
2.472948360E-1,7.717949152E-2,-7.846277952E-2,9.760709763E0,9.761330245E0
2.492948360E-1,7.147171348E-2,-7.378929853E-2,9.770450592E0,9.770990627E0
2.512948360E-1,6.924989074E-2,-7.397124916E-2,9.777277946E0,9.777802991E0
2.532948360E-1,6.607038528E-2,-7.359776646E-2,9.775353432E0,9.775853755E0
2.552948360E-1,6.675034016E-2,-7.987056673E-2,9.773944855E0,9.774499114E0
2.572948360E-1,7.021714747E-2,-7.547481358E-2,9.764282227E0,9.764826383E0
2.592948360E-1,7.449797541E-2,-7.178774476E-2,9.759407997E0,9.759956346E0
2.612948360E-1,6.654923409E-2,-7.765832543E-2,9.757616997E0,9.758152954E0
2.632948360E-1,6.677907705E-2,-7.971733809E-2,9.751248360E0,9.751802852E0
2.652948360E-1,6.461471319E-2,-8.354806155E-2,9.744381905E0,9.744954286E0
2.672948360E-1,6.313988566E-2,-8.664137125E-2,9.739803314E0,9.740393317E0
2.692963990E-1,6.251739711E-2,-8.643067628E-2,9.735466003E0,9.736050379E0
2.712948360E-1,5.847598240E-2,-8.675629646E-2,9.732180595E0,9.732742945E0
2.732948360E-1,6.304412335E-2,-8.915049583E-2,9.738625526E0,9.739237625E0
2.752963990E-1,6.952761859E-2,-9.097966552E-2,9.745846748E0,9.746519391E0
2.772948360E-1,7.773493975E-2,-8.755116910E-2,9.750961304E0,9.751664180E0
2.792948360E-1,7.151001692E-2,-8.505161852E-2,9.752819061E0,9.753452061E0
2.812948360E-1,6.918285042E-2,-9.175538272E-2,9.755759239E0,9.756436012E0
2.832948360E-1,6.914454699E-2,-8.497500420E-2,9.759628296E0,9.760243142E0
2.852948360E-1,6.321649998E-2,-7.829039544E-2,9.759791374E0,9.760310107E0
2.872948360E-1,6.299623847E-2,-7.658572495E-2,9.754792213E0,9.755296255E0
2.892948360E-1,6.875190139E-2,-7.967903465E-2,9.750663757E0,9.751231680E0
2.912948360E-1,7.399041206E-2,-8.166143298E-2,9.748720169E0,9.749342958E0
2.932948360E-1,7.447882742E-2,-8.356721699E-2,9.750118256E0,9.750760820E0
2.952948360E-1,6.943184882E-2,-7.778282464E-2,9.748815536E0,9.749373073E0
2.972963990E-1,5.984546617E-2,-7.614518702E-2,9.749907494E0,9.750388490E0
2.992948360E-1,5.980715901E-2,-7.158663124E-2,9.755280495E0,9.755726476E0
3.012948360E-1,6.139690802E-2,-7.121313363E-2,9.752570152E0,9.753023401E0
3.032948360E-1,7.144297659E-2,-7.241023332E-2,9.752359390E0,9.752889880E0
3.052948360E-1,7.045656443E-2,-7.014053315E-2,9.744410515E0,9.744917655E0
3.072948360E-1,6.798575073E-2,-6.998730451E-2,9.741413116E0,9.741901754E0
3.092948360E-1,6.853163242E-2,-7.375099510E-2,9.743375778E0,9.743895902E0
3.112948360E-1,7.427770644E-2,-7.186435908E-2,9.746623039E0,9.747170991E0
3.132948360E-1,8.619125932E-2,-6.939353794E-2,9.750012398E0,9.750640295E0
3.152948360E-1,8.780974150E-2,-7.285077125E-2,9.748298645E0,9.748966317E0
3.172948360E-1,8.486008644E-2,-8.148904890E-2,9.754312515E0,9.755022006E0
3.194713990E-1,8.003336936E-2,-8.087613434E-2,9.759140015E0,9.759803283E0
3.212948360E-1,8.237011731E-2,-7.970776409E-2,9.761677742E0,9.762350665E0
3.234401490E-1,8.000464737E-2,-8.811619878E-2,9.758631706E0,9.759357458E0
3.252948360E-1,7.999506593E-2,-9.527007490E-2,9.761198044E0,9.761990722E0
3.272948360E-1,8.757989854E-2,-9.590214491E-2,9.762434006E0,9.763297864E0
3.292948360E-1,8.952398598E-2,-9.444647282E-2,9.760470390E0,9.761337865E0
3.312948360E-1,9.783665836E-2,-8.325118572E-2,9.755222321E0,9.756068127E0
3.332948360E-1,9.399636090E-2,-8.066544682E-2,9.754006386E0,9.754792812E0
3.352948360E-1,8.956229687E-2,-8.193915337E-2,9.753738403E0,9.754493748E0
3.372948360E-1,8.754158765E-2,-7.645164430E-2,9.753891945E0,9.754584382E0
3.392948360E-1,8.956229687E-2,-8.061756194E-2,9.759800911E0,9.760544781E0
3.412948360E-1,8.891107142E-2,-9.120950848E-2,9.764071465E0,9.764902248E0
3.432948360E-1,8.783847094E-2,-9.374736249E-2,9.767241478E0,9.768086315E0
3.452948360E-1,8.401732892E-2,-9.245449305E-2,9.767280579E0,9.768079476E0
3.472948360E-1,8.770439774E-2,-9.264602512E-2,9.772747993E0,9.773580648E0
3.492948360E-1,9.233956784E-2,-9.645759314E-2,9.779059410E0,9.779971043E0
3.512948360E-1,9.321106225E-2,-9.267476201E-2,9.780169487E0,9.781052710E0
3.532948360E-1,9.261730313E-2,-9.119992703E-2,9.780390739E0,9.781254439E0
3.552948360E-1,9.668743610E-2,-9.211929888E-2,9.781731606E0,9.782643182E0
3.572948360E-1,1.022707224E-1,-9.637140483E-2,9.785618782E0,9.786627698E0
3.592948360E-1,1.059673727E-1,-9.363243729E-2,9.782889366E0,9.783911307E0
3.612948360E-1,1.029889807E-1,-8.905472606E-2,9.782727242E0,9.783674655E0
3.632948360E-1,1.046840772E-1,-8.276276290E-2,9.782075882E0,9.782986098E0
3.652948360E-1,1.025771797E-1,-7.500555366E-2,9.779192924E0,9.780018516E0
3.672948360E-1,1.054693758E-1,-6.993941963E-2,9.778379440E0,9.779198320E0
3.692948360E-1,1.041190401E-1,-7.254431397E-2,9.773074150E0,9.773897984E0
3.712948360E-1,1.035156995E-1,-7.386591285E-2,9.772872925E0,9.773700265E0
3.732948360E-1,1.037551239E-1,-7.634630799E-2,9.769454002E0,9.770303239E0
3.752948360E-1,1.051150262E-1,-7.527370751E-2,9.770813942E0,9.771669273E0
3.772948360E-1,1.016673818E-1,-7.770621032E-2,9.767068863E0,9.767907078E0
3.792948360E-1,9.886137396E-2,-7.455544174E-2,9.765096664E0,9.765881678E0
3.812948360E-1,9.679278731E-2,-7.530242950E-2,9.763085365E0,9.763855547E0
3.832948360E-1,9.291417897E-2,-7.121313363E-2,9.759446144E0,9.760148226E0
3.852948360E-1,8.961018175E-2,-6.756436825E-2,9.756936073E0,9.757581487E0
3.872948360E-1,9.422620386E-2,-7.132805884E-2,9.754494667E0,9.755210530E0
3.892948360E-1,9.426451474E-2,-8.415139467E-2,9.761533737E0,9.762351569E0
3.912948360E-1,9.736739099E-2,-9.175538272E-2,9.762118340E0,9.763035078E0
3.932948360E-1,9.443689138E-2,-9.350794554E-2,9.759140015E0,9.760044871E0
3.952948360E-1,9.112331271E-2,-1.022707224E-1,9.762568474E0,9.763529381E0
3.972948360E-1,8.715851605E-2,-9.647675604E-2,9.763459206E0,9.764324863E0
3.994713990E-1,7.955453545E-2,-8.627744764E-2,9.758287430E0,9.758993098E0
4.012963990E-1,8.320330083E-2,-8.827900887E-2,9.755395889E0,9.756150108E0
4.032948360E-1,8.615295589E-2,-8.350975811E-2,9.753833771E0,9.754571720E0
4.052948360E-1,7.860642672E-2,-8.979213983E-2,9.756649017E0,9.757378831E0
4.072948360E-1,7.969819009E-2,-8.778101206E-2,9.752885818E0,9.753606466E0
4.092948360E-1,8.135497570E-2,-8.736921102E-2,9.748729706E0,9.749460646E0
4.112948360E-1,7.800309360E-2,-8.524315804E-2,9.747992516E0,9.748677293E0
4.132948360E-1,7.131848484E-2,-8.838435262E-2,9.748145103E0,9.748806649E0
4.152948360E-1,7.167281955E-2,-8.440040052E-2,9.752215385E0,9.752843962E0
4.172948360E-1,7.142382860E-2,-8.650729060E-2,9.749428749E0,9.750074144E0
4.192948360E-1,7.149086148E-2,-8.327033371E-2,9.746842384E0,9.747460252E0
4.212948360E-1,7.418194413E-2,-8.733090013E-2,9.749381065E0,9.750054400E0
4.232948360E-1,7.522581518E-2,-9.086474776E-2,9.753268242E0,9.753981583E0
4.252948360E-1,6.284300983E-2,-9.629479051E-2,9.751506805E0,9.752184725E0
4.272948360E-1,5.866751820E-2,-8.617210388E-2,9.746708870E0,9.747266350E0
4.292948360E-1,6.912539154E-2,-8.396944404E-2,9.734163284E0,9.734770877E0
4.312948360E-1,6.425079703E-2,-7.653784007E-2,9.731462479E0,9.731975554E0
4.332948360E-1,7.417237014E-2,-8.006210625E-2,9.728723526E0,9.729335688E0
4.352948360E-1,6.869443506E-2,-8.057925105E-2,9.735992432E0,9.736568213E0
4.372948360E-1,7.225700468E-2,-7.464163005E-2,9.744008064E0,9.744561848E0
4.394713990E-1,6.488286704E-2,-7.345411181E-2,9.750127792E0,9.750620353E0
4.412948360E-1,6.788040698E-2,-6.812940538E-2,9.756975174E0,9.757449150E0
4.432948360E-1,6.893385202E-2,-7.030333579E-2,9.754198074E0,9.754694998E0
4.452948360E-1,6.952761859E-2,-7.705498487E-2,9.761150360E0,9.761702101E0
4.472948360E-1,6.941269338E-2,-7.892246544E-2,9.764397621E0,9.764963276E0
4.492948360E-1,6.689399481E-2,-7.816589624E-2,9.757616997E0,9.758159364E0
4.512948360E-1,6.221093610E-2,-7.470867038E-2,9.756505966E0,9.756990328E0
4.532948360E-1,5.983588845E-2,-7.188351452E-2,9.753795624E0,9.754244032E0
4.552948360E-1,5.952943116E-2,-7.719863951E-2,9.753911018E0,9.754398164E0
4.572948360E-1,5.980715901E-2,-7.741890848E-2,9.747714996E0,9.748205898E0
4.592948360E-1,7.208462805E-2,-7.418194413E-2,9.747916222E0,9.748464998E0
4.612948360E-1,8.034940809E-2,-7.780198008E-2,9.752004623E0,9.752645967E0
4.632948360E-1,7.677725703E-2,-7.942045480E-2,9.755050659E0,9.755676077E0
4.652948360E-1,7.943961024E-2,-8.373960108E-2,9.749639511E0,9.750322742E0
4.672948360E-1,7.763917744E-2,-8.754158765E-2,9.747723579E0,9.748425840E0
4.692948360E-1,7.528328151E-2,-8.362467587E-2,9.745426178E0,9.746075726E0
4.712948360E-1,7.073429972E-2,-7.949706912E-2,9.746239662E0,9.746820542E0
4.732948360E-1,7.479485869E-2,-8.292556554E-2,9.748394966E0,9.749034585E0
4.752948360E-1,7.617391646E-2,-7.721779495E-2,9.747418404E0,9.748021881E0
4.772948360E-1,7.914273441E-2,-7.458417863E-2,9.748106956E0,9.748713536E0
4.794713990E-1,7.311891764E-2,-7.698795199E-2,9.757559776E0,9.758137441E0
4.812948360E-1,8.019617945E-2,-7.289864868E-2,9.755203247E0,9.755805248E0
4.832948360E-1,8.214984834E-2,-7.752425224E-2,9.754407883E0,9.755061853E0
4.852948360E-1,7.606857270E-2,-8.160397410E-2,9.753632545E0,9.754270525E0
4.872948360E-1,6.904877722E-2,-7.755298167E-2,9.757826805E0,9.758379279E0
4.892948360E-1,7.456501573E-2,-7.657615095E-2,9.749907494E0,9.750493320E0
4.912948360E-1,6.798575073E-2,-7.479485869E-2,9.744449615E0,9.744973814E0
4.932948360E-1,7.349241525E-2,-7.017884403E-2,9.745272636E0,9.745802428E0
4.952948360E-1,8.248503506E-2,-7.354987413E-2,9.750826836E0,9.751453089E0
4.972948360E-1,8.802042902E-2,-7.038952410E-2,9.764214516E0,9.764864945E0
4.992948360E-1,9.715671092E-2,-7.218039036E-2,9.768160820E0,9.768910648E0
5.012948360E-1,9.216719121E-2,-7.582915574E-2,9.772931099E0,9.773659863E0
5.032948360E-1,9.187030792E-2,-8.550173044E-2,9.777814865E0,9.778620262E0
5.052948360E-1,9.265560657E-2,-8.421843499E-2,9.780562401E0,9.781363846E0
5.072948360E-1,9.591171890E-2,-7.831912488E-2,9.776358604E0,9.777142758E0
5.092948360E-1,9.994355589E-2,-7.790732384E-2,9.775258064E0,9.776079403E0
5.112948360E-1,9.631394595E-2,-8.260953426E-2,9.774970055E0,9.775793588E0
5.132948360E-1,8.974425495E-2,-9.099882096E-2,9.775640488E0,9.776475938E0
5.152948360E-1,8.983044326E-2,-9.353667498E-2,9.779346466E0,9.780206333E0
5.172948360E-1,9.017521143E-2,-8.876742423E-2,9.780994415E0,9.781812868E0
5.192948360E-1,9.127654135E-2,-7.719863951E-2,9.778226852E0,9.778957583E0
5.212948360E-1,9.264602512E-2,-7.753382623E-2,9.784977913E0,9.785723659E0
5.232948360E-1,9.721416235E-2,-7.818505168E-2,9.772327423E0,9.773123695E0
5.252948360E-1,1.001063585E-1,-8.544426411E-2,9.754858017E0,9.755745842E0
5.272948360E-1,9.192776680E-2,-9.297163785E-2,9.740598679E0,9.741476123E0
5.292948360E-1,8.358637244E-2,-9.183199704E-2,9.728406906E0,9.729199388E0
5.312948360E-1,8.444827795E-2,-8.754158765E-2,9.724328041E0,9.725088734E0
5.332948360E-1,8.660306782E-2,-8.332780004E-2,9.733234406E0,9.733976351E0
5.352948360E-1,8.519527316E-2,-8.590395004E-2,9.755577087E0,9.756327282E0
5.374401490E-1,8.803958446E-2,-8.606676757E-2,9.772422791E0,9.773198333E0
5.392948360E-1,8.959102631E-2,-8.402690291E-2,9.784556389E0,9.785327322E0
5.412948360E-1,8.468770236E-2,-8.412267268E-2,9.790283203E0,9.791010869E0
5.432948360E-1,8.018659800E-2,-8.022490889E-2,9.793663979E0,9.794320806E0
5.452948360E-1,8.666051924E-2,-7.200801373E-2,9.794909477E0,9.795557507E0
5.472948360E-1,8.574114740E-2,-7.710287720E-2,9.780007362E0,9.780687113E0
5.493604610E-1,8.637322485E-2,-8.024406433E-2,9.759896278E0,9.760608322E0
5.512948360E-1,9.409212321E-2,-7.462248206E-2,9.761630058E0,9.762368731E0
5.532948360E-1,8.770439774E-2,-6.536170840E-2,9.765537262E0,9.766149816E0
5.552948360E-1,8.483134955E-2,-5.896440148E-2,9.771915436E0,9.772461534E0
5.572948360E-1,9.349836409E-2,-6.315904111E-2,9.780208588E0,9.780859422E0
5.594713990E-1,8.767566830E-2,-6.186617166E-2,9.772135735E0,9.772724864E0
5.612948360E-1,8.465897292E-2,-6.099468097E-2,9.766848564E0,9.767405918E0
5.632948360E-1,8.613379300E-2,-6.827305257E-2,9.761457443E0,9.762076196E0
5.652948360E-1,8.855672926E-2,-7.080133259E-2,9.750098228E0,9.750757437E0
5.672948360E-1,9.206184745E-2,-6.152140722E-2,9.750424385E0,9.751053069E0
5.692948360E-1,8.721598238E-2,-7.048530132E-2,9.754878044E0,9.755522562E0
5.712948360E-1,8.593268692E-2,-7.516835630E-2,9.753767014E0,9.754435179E0
5.732948360E-1,8.833646029E-2,-6.683653593E-2,9.757788658E0,9.758417390E0
5.752948360E-1,9.876561165E-2,-6.760267913E-2,9.761333466E0,9.762067189E0
5.772948360E-1,1.067813933E-1,-6.389645487E-2,9.757137299E0,9.757930789E0
5.792948360E-1,9.810481220E-2,-6.589800864E-2,9.752311707E0,9.753027772E0
5.812948360E-1,9.534668922E-2,-6.955634803E-2,9.748748779E0,9.749463156E0
5.832948360E-1,9.234914929E-2,-6.464345008E-2,9.732363701E0,9.733016508E0
5.852948360E-1,9.165961295E-2,-6.661626697E-2,9.732841492E0,9.733501051E0
5.872948360E-1,9.003156424E-2,-6.802405417E-2,9.743586540E0,9.744239920E0
5.892948360E-1,9.321106225E-2,-7.491935790E-2,9.751592636E0,9.752325884E0
5.912948360E-1,9.383355081E-2,-7.325299829E-2,9.752684593E0,9.753411071E0
5.932948360E-1,8.324160427E-2,-7.766789943E-2,9.748155594E0,9.748820388E0
5.952948360E-1,9.203311056E-2,-6.979577243E-2,9.751985550E0,9.752669568E0
5.972948360E-1,7.996633649E-2,-7.570465654E-2,9.754485130E0,9.755106661E0
5.992948360E-1,8.405563235E-2,-7.526411861E-2,9.758699417E0,9.759351636E0
6.012948360E-1,8.980172127E-2,-8.040686697E-2,9.762865067E0,9.763609165E0
6.032948360E-1,9.209057689E-2,-8.057925105E-2,9.757262230E0,9.758029510E0
6.052948360E-1,7.897035033E-2,-7.119398564E-2,9.756458282E0,9.757037620E0
6.072948360E-1,8.814492822E-2,-7.128974795E-2,9.746077538E0,9.746736845E0
6.092948360E-1,7.277415693E-2,-9.225337952E-2,9.737936974E0,9.738645864E0
6.112963990E-1,6.926904619E-2,-7.437348366E-2,9.740302086E0,9.740832323E0
6.133245240E-1,7.299442589E-2,-7.411490381E-2,9.740167618E0,9.740723096E0
6.152963990E-1,7.621222734E-2,-8.166143298E-2,9.739536285E0,9.740176792E0
6.172948360E-1,7.784028351E-2,-8.378748596E-2,9.744774818E0,9.745445896E0
6.192963990E-1,8.781932294E-2,-8.794381469E-2,9.760183334E0,9.760974596E0
6.212948360E-1,9.461884946E-2,-8.458235860E-2,9.773198128E0,9.774022127E0
6.232948360E-1,9.298121929E-2,-8.136454970E-2,9.780582428E0,9.781362805E0
6.252948360E-1,9.410169721E-2,-6.155971438E-2,9.784365654E0,9.785011803E0
6.272948360E-1,9.563399851E-2,-7.324341685E-2,9.775065422E0,9.775807612E0
6.292948360E-1,9.715671092E-2,-6.810066849E-2,9.772020340E0,9.772740591E0
6.312948360E-1,9.561483562E-2,-6.029557437E-2,9.762299538E0,9.762953960E0
6.332948360E-1,8.766609430E-2,-7.467036694E-2,9.753211975E0,9.753891779E0
6.352948360E-1,8.820239455E-2,-7.571423054E-2,9.736480713E0,9.737174589E0
6.372948360E-1,8.245630562E-2,-7.473740727E-2,9.733214378E0,9.733850567E0
6.394729610E-1,8.246587962E-2,-7.922892272E-2,9.729537964E0,9.730210010E0
6.417526490E-1,8.033982664E-2,-7.816589624E-2,9.737898827E0,9.738543934E0
6.436635860E-1,8.247546107E-2,-7.263050228E-2,9.747054100E0,9.747673621E0
6.452948360E-1,8.363425732E-2,-7.384675741E-2,9.754044533E0,9.754682608E0
6.472948360E-1,8.248503506E-2,-7.250600308E-2,9.756074905E0,9.756693008E0
6.492948360E-1,7.908527553E-2,-6.975746155E-2,9.749859810E0,9.750430088E0
6.512948360E-1,7.563761622E-2,-7.052360475E-2,9.733732224E0,9.734281567E0
6.532948360E-1,7.525454462E-2,-7.683472335E-2,9.720037460E0,9.720632441E0
6.552948360E-1,6.414545327E-2,-8.003336936E-2,9.719328880E0,9.719870054E0
6.572948360E-1,6.722918898E-2,-8.487924188E-2,9.724442482E0,9.725045287E0
6.592948360E-1,6.724833697E-2,-8.352890611E-2,9.740895271E0,9.741485518E0
6.612948360E-1,6.213432178E-2,-8.296387643E-2,9.758880615E0,9.759431056E0
6.632948360E-1,6.614699960E-2,-7.332961261E-2,9.776838303E0,9.777337053E0
6.652948360E-1,7.738059759E-2,-6.177040562E-2,9.788186073E0,9.788686835E0
6.672948360E-1,8.371087164E-2,-6.964253634E-2,9.794622421E0,9.795227714E0
6.692948360E-1,9.247364849E-2,-6.865613163E-2,9.798192978E0,9.798869867E0
6.712948360E-1,9.570102394E-2,-7.720821351E-2,9.788683891E0,9.789456171E0
6.732948360E-1,8.881530911E-2,-7.548438758E-2,9.779633522E0,9.780328107E0
6.752948360E-1,7.985141873E-2,-7.446924597E-2,9.770727158E0,9.771337222E0
6.772948360E-1,7.912357897E-2,-7.819462568E-2,9.754494667E0,9.755128966E0
6.792948360E-1,8.019617945E-2,-8.509950340E-2,9.748969078E0,9.749670325E0
6.812948360E-1,8.598056436E-2,-7.961199433E-2,9.745981216E0,9.746685621E0
6.832948360E-1,8.548257500E-2,-7.483316958E-2,9.751142502E0,9.751804313E0
6.852948360E-1,8.627744764E-2,-8.469728380E-2,9.762538910E0,9.763287530E0
6.872948360E-1,8.698613942E-2,-8.321287483E-2,9.768773079E0,9.769514749E0
6.892948360E-1,9.054870903E-2,-7.458417863E-2,9.769137383E0,9.769841711E0
6.912948360E-1,9.604579210E-2,-7.254431397E-2,9.759714127E0,9.760456306E0
6.932948360E-1,9.553822130E-2,-7.049487531E-2,9.755884171E0,9.756606635E0
6.952948360E-1,9.004113823E-2,-6.523720920E-2,9.744400978E0,9.745035337E0
6.972948360E-1,8.927499503E-2,-7.316680253E-2,9.734603882E0,9.735288190E0
6.992948360E-1,8.538681269E-2,-7.616434246E-2,9.733616829E0,9.734289316E0
7.012948360E-1,9.092220664E-2,-7.716991007E-2,9.738319397E0,9.739049580E0
7.032948360E-1,9.558610618E-2,-7.081091404E-2,9.748356819E0,9.749082601E0
7.052948360E-1,1.004702821E-1,-6.613742560E-2,9.754973412E0,9.755714976E0
7.072948360E-1,9.911037236E-2,-7.289864868E-2,9.767165184E0,9.767940050E0
7.092948360E-1,9.580637515E-2,-6.482540816E-2,9.774548531E0,9.775232998E0
7.112948360E-1,9.698431939E-2,-6.669288874E-2,9.780447960E0,9.781156179E0
7.132948360E-1,1.003745124E-1,-6.928820163E-2,9.783062935E0,9.783823194E0
7.152948360E-1,9.515514970E-2,-7.747636735E-2,9.780544281E0,9.781313998E0
7.172948360E-1,9.667786211E-2,-7.906611264E-2,9.777431488E0,9.778229112E0
7.194713990E-1,9.192776680E-2,-7.879796624E-2,9.780438423E0,9.781187841E0
7.212948360E-1,9.012732655E-2,-7.133763283E-2,9.782785416E0,9.783460660E0
7.232948360E-1,8.749370277E-2,-6.412629783E-2,9.770679474E0,9.771281631E0
7.252948360E-1,8.200619370E-2,-7.208462805E-2,9.768390656E0,9.769000830E0
7.272948360E-1,7.615476847E-2,-6.940311939E-2,9.767605782E0,9.768149213E0
7.292948360E-1,7.999506593E-2,-6.389645487E-2,9.773427963E0,9.773964197E0
7.312948360E-1,7.567592710E-2,-6.300581247E-2,9.776397705E0,9.776893610E0
7.332948360E-1,8.689036220E-2,-6.204812974E-2,9.773610115E0,9.774193296E0
7.352948360E-1,9.004113823E-2,-6.827305257E-2,9.779872894E0,9.780525673E0
7.372948360E-1,9.401550889E-2,-6.895300746E-2,9.779844284E0,9.780539231E0
7.392948360E-1,8.860461414E-2,-7.941088080E-2,9.777316093E0,9.778040031E0
7.412948360E-1,9.066362679E-2,-7.816589624E-2,9.772289276E0,9.773022434E0
7.432948360E-1,9.813353419E-2,-7.649953663E-2,9.773419380E0,9.774211413E0
7.452948360E-1,8.724471182E-2,-8.565495908E-2,9.767624855E0,9.768390027E0
7.472948360E-1,9.204268456E-2,-8.649771661E-2,9.764818192E0,9.765635055E0
7.494401490E-1,7.903738320E-2,-8.445785940E-2,9.763841629E0,9.764526788E0
7.512948360E-1,8.032067865E-2,-8.341398835E-2,9.748518944E0,9.749206681E0
7.532948360E-1,9.273222089E-2,-7.258261740E-2,9.750473022E0,9.751184116E0
7.552948360E-1,9.409212321E-2,-7.008306682E-2,9.751554489E0,9.752260247E0
7.572948360E-1,8.994536847E-2,-6.795702130E-2,9.748414040E0,9.749065833E0
7.592948360E-1,8.774270862E-2,-6.947015226E-2,9.747005463E0,9.747647941E0
7.612948360E-1,8.195831627E-2,-6.884766370E-2,9.744592667E0,9.745180522E0
7.632948360E-1,7.571423054E-2,-7.091625035E-2,9.744353294E0,9.744905484E0
7.652948360E-1,8.065586537E-2,-6.868486106E-2,9.742935181E0,9.743511118E0
7.672948360E-1,7.523539662E-2,-6.814856082E-2,9.743548393E0,9.744077169E0
7.692948360E-1,8.114428818E-2,-5.895482376E-2,9.753556252E0,9.754071951E0
7.712948360E-1,8.259996027E-2,-6.187574938E-2,9.758880615E0,9.759426327E0
7.732948360E-1,8.394071460E-2,-7.054275274E-2,9.758440018E0,9.759055994E0
7.752948360E-1,7.182604820E-2,-7.085879147E-2,9.751038551E0,9.751560530E0
7.772948360E-1,7.025545835E-2,-6.610869616E-2,9.742074013E0,9.742551630E0
7.792948360E-1,7.332003117E-2,-6.760267913E-2,9.737198830E0,9.737709535E0
7.812963990E-1,8.246587962E-2,-6.896258891E-2,9.732237816E0,9.732831518E0
7.832948360E-1,7.879796624E-2,-6.581181288E-2,9.726846695E0,9.727388495E0
7.852948360E-1,7.702626288E-2,-6.180871278E-2,9.727574348E0,9.728075661E0
7.872948360E-1,8.645941317E-2,-7.155790180E-2,9.729901314E0,9.730548563E0
7.894729610E-1,8.617210388E-2,-6.071695313E-2,9.736222267E0,9.736792912E0
7.912948360E-1,8.981129527E-2,-6.313031167E-2,9.748193741E0,9.748811862E0
7.932948360E-1,9.847830236E-2,-7.292738557E-2,9.745435715E0,9.746206116E0
7.952948360E-1,8.893022686E-2,-7.449797541E-2,9.744190216E0,9.744880784E0
7.972948360E-1,9.674490243E-2,-7.573339343E-2,9.750837326E0,9.751611338E0
7.994713990E-1,9.817184508E-2,-8.370129764E-2,9.749582291E0,9.750435809E0
8.012948360E-1,8.704359084E-2,-6.986280531E-2,9.754188538E0,9.754827083E0
8.032948360E-1,8.423759788E-2,-5.963477865E-2,9.746641159E0,9.747187603E0
8.052948360E-1,8.805873990E-2,-6.042007357E-2,9.728282928E0,9.728869084E0
8.072948360E-1,7.623138279E-2,-5.826529488E-2,9.725908279E0,9.726381543E0
8.092948360E-1,7.546523958E-2,-6.375280023E-2,9.734661102E0,9.735162361E0
8.112948360E-1,7.957368344E-2,-6.879020482E-2,9.761141777E0,9.761708501E0
8.132948360E-1,7.428729534E-2,-7.396167517E-2,9.776473999E0,9.777035992E0
8.152948360E-1,8.381621540E-2,-7.106947899E-2,9.776042938E0,9.776660553E0
8.172948360E-1,9.216719121E-2,-7.774451375E-2,9.764071465E0,9.764815951E0
8.192948360E-1,9.006028622E-2,-7.302315533E-2,9.748777390E0,9.749466848E0
8.212948360E-1,8.769481629E-2,-7.703583688E-2,9.742419243E0,9.743118474E0
8.232948360E-1,7.986099273E-2,-7.399041206E-2,9.742178917E0,9.742787199E0
8.252948360E-1,7.177817076E-2,-6.924989074E-2,9.747780800E0,9.748291039E0
8.272948360E-1,8.347144723E-2,-8.532934636E-2,9.752560616E0,9.753291093E0
8.292948360E-1,8.799169958E-2,-7.512047887E-2,9.756027222E0,9.756713216E0
8.312948360E-1,7.939173281E-2,-7.774451375E-2,9.760614395E0,9.761246879E0
8.332948360E-1,7.336792350E-2,-7.769662887E-2,9.762586594E0,9.763171443E0
8.352948360E-1,7.483316958E-2,-7.188351452E-2,9.762491226E0,9.763042670E0
8.372948360E-1,8.008126169E-2,-7.990887761E-2,9.764138222E0,9.764793580E0
8.392948360E-1,8.269572258E-2,-7.526411861E-2,9.762989044E0,9.763629363E0
8.412948360E-1,8.127836138E-2,-6.840712577E-2,9.763717651E0,9.764295575E0
8.432948360E-1,8.511865884E-2,-6.684611738E-2,9.763468742E0,9.764068592E0
8.452948360E-1,9.618944675E-2,-6.639600545E-2,9.761514664E0,9.762214368E0
8.472948360E-1,1.024430990E-1,-7.128974795E-2,9.762060165E0,9.762857957E0
8.492948360E-1,9.753978252E-2,-7.760086656E-2,9.757387161E0,9.758183239E0
8.512948360E-1,9.860280901E-2,-7.124187052E-2,9.759819031E0,9.760577105E0
8.532948360E-1,8.984002471E-2,-7.650911063E-2,9.765929222E0,9.766642127E0
8.552948360E-1,9.243533760E-2,-7.327214628E-2,9.772279739E0,9.772991579E0
8.572948360E-1,9.222465008E-2,-7.598238438E-2,9.772853851E0,9.773584353E0
8.592948360E-1,9.004113823E-2,-7.153874636E-2,9.770421028E0,9.771097802E0
8.612963990E-1,8.543469012E-2,-6.748775393E-2,9.768677711E0,9.769284412E0
8.632948360E-1,9.177453816E-2,-7.015010715E-2,9.764388084E0,9.765071340E0
8.652963990E-1,9.506896138E-2,-6.380068511E-2,9.760049820E0,9.760721342E0
8.672948360E-1,8.572199941E-2,-6.981492043E-2,9.763899803E0,9.764525680E0
8.692948360E-1,8.706275374E-2,-6.048711017E-2,9.768257141E0,9.768832386E0
8.712948360E-1,8.947610110E-2,-5.909847468E-2,9.774903297E0,9.775491449E0
8.732948360E-1,8.904515207E-2,-5.854301900E-2,9.772508621E0,9.773089638E0
8.752948360E-1,9.379523993E-2,-5.873455480E-2,9.762156487E0,9.762783751E0
8.772948360E-1,9.414000809E-2,-6.071695313E-2,9.749773026E0,9.750416552E0
8.794713990E-1,8.799169958E-2,-7.458417863E-2,9.735332489E0,9.736015818E0
8.812948360E-1,8.931329846E-2,-6.931692362E-2,9.735494614E0,9.736151040E0
8.832948360E-1,9.608409554E-2,-7.056191564E-2,9.743165016E0,9.743894276E0
8.852948360E-1,8.286811411E-2,-8.284895122E-2,9.761094093E0,9.761797425E0
8.872948360E-1,8.271488547E-2,-6.454767287E-2,9.776501656E0,9.777064630E0
8.892948360E-1,9.827718884E-2,-7.202716172E-2,9.789037704E0,9.789795989E0
8.912948360E-1,1.027112529E-1,-8.527188748E-2,9.798634529E0,9.799543843E0
8.932948360E-1,1.014566869E-1,-7.296568900E-2,9.810882568E0,9.811678461E0
8.952948360E-1,9.209057689E-2,-7.598238438E-2,9.802703857E0,9.803430875E0
8.972948360E-1,9.293333441E-2,-8.635406196E-2,9.790561676E0,9.791383537E0
8.992963990E-1,8.699571341E-2,-8.509950340E-2,9.778360367E0,9.779117631E0
9.012948360E-1,8.798212558E-2,-8.276276290E-2,9.768390656E0,9.769137451E0
9.032963990E-1,7.513005286E-2,-7.433517277E-2,9.747282982E0,9.747855958E0
9.052948360E-1,7.722736895E-2,-6.925946474E-2,9.733033180E0,9.733585970E0
9.072948360E-1,7.986099273E-2,-7.208462805E-2,9.734622955E0,9.735217412E0
9.092948360E-1,8.899726719E-2,-7.105990499E-2,9.736040115E0,9.736706176E0
9.112948360E-1,7.915230840E-2,-6.185659394E-2,9.735523224E0,9.736041484E0
9.132948360E-1,9.184157848E-2,-5.926128104E-2,9.732497215E0,9.733110953E0
9.152948360E-1,9.364201128E-2,-6.358042359E-2,9.739305496E0,9.739963185E0
9.172948360E-1,9.744400531E-2,-5.946239457E-2,9.749189377E0,9.749857672E0
9.192948360E-1,1.100758240E-1,-6.357084215E-2,9.749801636E0,9.750630230E0
9.212948360E-1,1.078539938E-1,-6.698976457E-2,9.750396729E0,9.751223332E0
9.232948360E-1,1.000297442E-1,-5.504748598E-2,9.751602173E0,9.752270562E0
9.252948360E-1,1.184267923E-1,-5.791094899E-2,9.756218910E0,9.757109511E0
9.272948360E-1,1.137054265E-1,-7.123228908E-2,9.767193794E0,9.768115354E0
9.292948360E-1,9.739612788E-2,-6.616616249E-2,9.769741058E0,9.770450569E0
9.312948360E-1,9.737696499E-2,-7.359776646E-2,9.756055832E0,9.756819374E0
9.332948360E-1,9.447519481E-2,-8.345229179E-2,9.745310783E0,9.746126005E0
9.352948360E-1,8.320330083E-2,-5.836106092E-2,9.741584778E0,9.742114903E0
9.372948360E-1,8.347144723E-2,-6.080314517E-2,9.737659454E0,9.738207030E0
9.392948360E-1,7.853939384E-2,-6.313031167E-2,9.739631653E0,9.740152905E0
9.412948360E-1,7.697837055E-2,-5.002924055E-2,9.753067970E0,9.753500060E0
9.432948360E-1,8.819281310E-2,-6.898174435E-2,9.757818222E0,9.758460581E0
9.452948360E-1,9.628521651E-2,-6.253654510E-2,9.753987312E0,9.754662995E0
9.472948360E-1,8.938033879E-2,-4.924394190E-2,9.747217178E0,9.747751358E0
9.492948360E-1,8.588480204E-2,-5.489425734E-2,9.746603966E0,9.747136936E0
9.512948360E-1,8.450574428E-2,-6.277596951E-2,9.749745369E0,9.750313677E0
9.532948360E-1,8.244673163E-2,-7.581000775E-2,9.761639595E0,9.762282121E0
9.552948360E-1,8.042602241E-2,-7.345411181E-2,9.764397621E0,9.765005108E0
9.572948360E-1,8.415139467E-2,-7.158663124E-2,9.776090622E0,9.776714885E0
9.594713990E-1,9.426451474E-2,-8.584649861E-2,9.785715103E0,9.786545637E0
9.612948360E-1,9.068278223E-2,-7.551312447E-2,9.772700310E0,9.773412758E0
9.634401490E-1,7.962157577E-2,-7.576211542E-2,9.750137329E0,9.750756762E0
9.652948360E-1,7.353072613E-2,-8.096232265E-2,9.740799904E0,9.741413883E0
9.672963990E-1,7.495766133E-2,-8.211154491E-2,9.754380226E0,9.755013816E0
9.692963990E-1,7.407660037E-2,-7.389463484E-2,9.767585754E0,9.768146151E0
9.712948360E-1,7.899907976E-2,-7.327214628E-2,9.772566795E0,9.773160770E0
9.732948360E-1,8.461108804E-2,-7.107906044E-2,9.777200699E0,9.777825156E0
9.752948360E-1,9.828676283E-2,-7.397124916E-2,9.771024704E0,9.771799005E0
9.772948360E-1,9.619902819E-2,-7.975564897E-2,9.770833015E0,9.771632056E0
9.792948360E-1,9.072109312E-2,-7.576211542E-2,9.770871162E0,9.771586027E0
9.812948360E-1,8.308837563E-2,-6.573519856E-2,9.776838303E0,9.777412336E0
9.832948360E-1,9.436985850E-2,-5.953900889E-2,9.791002274E0,9.791638070E0
9.852948360E-1,1.055076793E-1,-6.194278598E-2,9.800894737E0,9.801658351E0
9.872963990E-1,9.980947524E-2,-5.995080993E-2,9.803297997E0,9.803989374E0
9.892948360E-1,1.031709388E-1,-7.626969367E-2,9.802560806E0,9.803400414E0
9.912948360E-1,1.073368564E-1,-6.810066849E-2,9.782219887E0,9.783045784E0
9.932948360E-1,9.017521143E-2,-4.830541089E-2,9.760126114E0,9.760662208E0
9.952948360E-1,9.011775255E-2,-5.338112265E-2,9.744524956E0,9.745087858E0
9.972948360E-1,8.188170195E-2,-5.747041851E-2,9.740243912E0,9.740757615E0
9.992948360E-1,9.006028622E-2,-5.907932296E-2,9.727124214E0,9.727720529E0
1.001294836E0,9.309613705E-2,-6.507439911E-2,9.718141556E0,9.718805321E0
1.003294836E0,7.191223651E-2,-6.280469894E-2,9.714491844E0,9.714961018E0
1.005294836E0,6.992026418E-2,-5.509537086E-2,9.720429420E0,9.720837025E0
1.007296399E0,7.381802052E-2,-5.885905400E-2,9.727229118E0,9.727687280E0
1.009294836E0,7.533115894E-2,-6.087975949E-2,9.745139122E0,9.745620434E0
1.011294836E0,9.726204723E-2,-6.593631953E-2,9.768870354E0,9.769577037E0
1.013294836E0,9.120950848E-2,-6.358042359E-2,9.775572777E0,9.776205028E0
1.015296399E0,1.012651548E-1,-4.912902042E-2,9.783780098E0,9.784427490E0
1.017294836E0,1.075092331E-1,-7.628884166E-2,9.776205063E0,9.777093825E0
1.019294836E0,9.602664411E-2,-7.450754941E-2,9.762405396E0,9.763161967E0
1.021294836E0,9.049125016E-2,-6.236416474E-2,9.740406990E0,9.741026963E0
1.023294836E0,7.477571070E-2,-5.680004135E-2,9.727066994E0,9.727520237E0
1.025294836E0,8.468770236E-2,-6.108087674E-2,9.734910011E0,9.735469984E0
1.027296399E0,9.206184745E-2,-7.347325981E-2,9.743242264E0,9.743954203E0
1.029294836E0,8.958145231E-2,-6.276638806E-2,9.750885010E0,9.751498497E0
1.031294836E0,8.088570833E-2,-6.484455615E-2,9.756678581E0,9.757229333E0
1.033294836E0,8.364383131E-2,-4.907156155E-2,9.763047218E0,9.763528834E0
1.035294836E0,9.152553976E-2,-4.305732250E-2,9.776684761E0,9.777207974E0
1.037294836E0,1.051437631E-1,-5.930916592E-2,9.782305717E0,9.783050544E0
1.039471399E0,1.025292948E-1,-6.123410538E-2,9.781950951E0,9.782679913E0
1.041294836E0,9.582553059E-2,-5.675215647E-2,9.768027306E0,9.768662180E0
1.043294836E0,9.955090284E-2,-5.859090388E-2,9.751928329E0,9.752612441E0
1.045294836E0,1.004223973E-1,-5.568913370E-2,9.749639511E0,9.750315715E0
1.047294836E0,1.001159400E-1,-6.097552925E-2,9.745740891E0,9.746445851E0
1.049294836E0,1.020313054E-1,-5.879201367E-2,9.746747017E0,9.747458351E0
1.051296399E0,9.962751716E-2,-6.120537221E-2,9.751937866E0,9.752638817E0
1.053294836E0,9.657251835E-2,-6.777506322E-2,9.754858017E0,9.755571467E0
1.055294836E0,1.054406464E-1,-7.118440419E-2,9.766179085E0,9.767007672E0
1.057294836E0,1.118954122E-1,-7.176858932E-2,9.761198044E0,9.762103183E0
1.059294836E0,1.033145934E-1,-6.311115623E-2,9.767414093E0,9.768164361E0
1.061294836E0,9.889967740E-2,-6.102341413E-2,9.765661240E0,9.766352669E0
1.063294836E0,1.032954380E-1,-6.216305122E-2,9.755519867E0,9.756264760E0
1.065294836E0,1.037455425E-1,-5.781518295E-2,9.751181602E0,9.751904859E0
1.067294836E0,9.951259941E-2,-6.404010952E-2,9.750195503E0,9.750913611E0
1.069294836E0,9.905291349E-2,-6.400179863E-2,9.754513741E0,9.755226600E0
1.071294836E0,9.545203298E-2,-6.425079703E-2,9.754006386E0,9.754685020E0
1.073294836E0,9.086474776E-2,-6.181828678E-2,9.743366241E0,9.743986023E0
1.075294836E0,8.947610110E-2,-6.129156426E-2,9.746583939E0,9.747187343E0
1.077294836E0,8.367256075E-2,-6.455725431E-2,9.745655060E0,9.746228054E0
1.079294836E0,8.651687950E-2,-5.058469251E-2,9.741690636E0,9.742206137E0
1.081294836E0,8.457278460E-2,-4.981854931E-2,9.737802505E0,9.738297186E0
1.083294836E0,8.675629646E-2,-4.244440794E-2,9.741863251E0,9.742342007E0
1.085294836E0,8.856631070E-2,-4.688804597E-2,9.744956017E0,9.745471268E0
1.087294836E0,8.888234943E-2,-4.831499234E-2,9.754792213E0,9.755316783E0
1.089294836E0,8.954314142E-2,-4.377558455E-2,9.764589310E0,9.765097985E0
1.091294836E0,9.266518056E-2,-3.864241391E-2,9.767097473E0,9.767613481E0
1.093294836E0,8.185296506E-2,-4.314351454E-2,9.774261475E0,9.774699415E0
1.095363586E0,8.115386218E-2,-5.065172911E-2,9.777192116E0,9.777660109E0
1.097294836E0,8.436208963E-2,-5.616797134E-2,9.775965691E0,9.776491037E0
1.099294836E0,8.395986259E-2,-5.830360204E-2,9.774003029E0,9.774537522E0
1.101294836E0,8.155608177E-2,-5.397488549E-2,9.766599655E0,9.767089306E0
1.103294836E0,8.484093845E-2,-4.637089744E-2,9.757358551E0,9.757837575E0
1.105294836E0,8.507078141E-2,-5.001008511E-2,9.761639595E0,9.762138374E0
1.107294836E0,8.312668651E-2,-4.878425226E-2,9.758862495E0,9.759338459E0
1.109294836E0,9.330683202E-2,-4.645708948E-2,9.757559776E0,9.758116479E0
1.111294836E0,9.049125016E-2,-5.279693753E-2,9.755682945E0,9.756245482E0
1.113294836E0,9.037632495E-2,-5.556463078E-2,9.757081032E0,9.757657791E0
1.115294836E0,9.107543528E-2,-5.637866259E-2,9.752723694E0,9.753311886E0
1.117294836E0,9.180326760E-2,-5.657977238E-2,9.744832039E0,9.745428702E0
1.119471399E0,8.815450221E-2,-5.069003627E-2,9.743511200E0,9.744041831E0
1.121294836E0,7.861600816E-2,-4.902367294E-2,9.741969109E0,9.742409656E0
1.123294836E0,7.202716172E-2,-4.773080349E-2,9.737572670E0,9.737956030E0
1.125294836E0,7.027460635E-2,-5.721184611E-2,9.741240501E0,9.741661985E0
1.127294836E0,7.200801373E-2,-5.224148184E-2,9.746880531E0,9.747286516E0
1.129294836E0,6.981492043E-2,-4.730942473E-2,9.745176315E0,9.745541223E0
1.131294836E0,7.574296743E-2,-4.341166839E-2,9.743472099E0,9.743863203E0
1.133294836E0,7.319553196E-2,-4.522168264E-2,9.749257088E0,9.749636729E0
1.135296399E0,7.721779495E-2,-4.057693109E-2,9.755414009E0,9.755803994E0
1.137294836E0,8.176677674E-2,-4.040454701E-2,9.748279572E0,9.748706219E0
1.139472961E0,8.513780683E-2,-4.399584979E-2,9.745779991E0,9.746251162E0
1.141872961E0,9.196607023E-2,-5.055596307E-2,9.743798256E0,9.744363402E0
1.143521399E0,8.717767149E-2,-5.341942981E-2,9.746995926E0,9.747532157E0
1.145294836E0,8.763735741E-2,-5.435795709E-2,9.747292519E0,9.747838044E0
1.147294836E0,9.392932057E-2,-6.185659394E-2,9.753421783E0,9.754070199E0
1.149294836E0,1.010257304E-1,-6.547663361E-2,9.747484207E0,9.748227621E0
1.151294836E0,1.006809697E-1,-5.955816433E-2,9.745827675E0,9.746529685E0
1.153294836E0,8.676587045E-2,-5.607220531E-2,9.749926567E0,9.750473859E0
1.155294836E0,7.139509916E-2,-6.373365223E-2,9.751622200E0,9.752091815E0
1.157294836E0,7.173985988E-2,-6.258442998E-2,9.750625610E0,9.751090360E0
1.159294836E0,7.761044055E-2,-5.363969505E-2,9.749926567E0,9.750383001E0
1.161294836E0,7.491935790E-2,-5.023035035E-2,9.742294312E0,9.742711863E0
1.163294836E0,6.134902686E-2,-5.290227756E-2,9.744420052E0,9.744756769E0
1.165294836E0,6.055415049E-2,-5.751830339E-2,9.750309944E0,9.750667627E0
1.167294836E0,6.982450187E-2,-5.761406943E-2,9.753172874E0,9.753592977E0
1.169296399E0,7.158663124E-2,-6.356126815E-2,9.753250122E0,9.753719938E0
1.171294836E0,7.756256312E-2,-5.914635956E-2,9.754207611E0,9.754695298E0
1.173294836E0,7.709329575E-2,-6.292919815E-2,9.756793022E0,9.757300525E0
1.175294836E0,7.897035033E-2,-6.102341413E-2,9.753604889E0,9.754115465E0
1.177440149E0,7.669106871E-2,-5.923255160E-2,9.758191109E0,9.758672232E0
1.179294836E0,7.223785669E-2,-6.397306919E-2,9.755778313E0,9.756255498E0
1.181294836E0,8.270530403E-2,-6.822517514E-2,9.758000374E0,9.758589352E0
1.183294836E0,9.075939655E-2,-5.911763012E-2,9.759484291E0,9.760085337E0
1.185294836E0,9.362286329E-2,-5.738422647E-2,9.761668205E0,9.762285815E0
1.187294836E0,9.158299863E-2,-5.503791198E-2,9.766810417E0,9.767394860E0
1.189294836E0,1.005085930E-1,-4.965574294E-2,9.767778397E0,9.768421698E0
1.191294836E0,1.006426588E-1,-4.422569275E-2,9.762722015E0,9.763340924E0
1.193294836E0,1.049234942E-1,-4.035666212E-2,9.763439178E0,9.764086347E0
1.195294836E0,1.060631350E-1,-4.673481733E-2,9.764551163E0,9.765239011E0
1.197294836E0,9.656294435E-2,-4.984727874E-2,9.770095825E0,9.770700158E0
1.199471399E0,9.576806426E-2,-4.769249633E-2,9.767087936E0,9.767673871E0
1.201294836E0,9.637140483E-2,-5.358223245E-2,9.766551971E0,9.767174408E0
1.203296399E0,9.609368443E-2,-5.552632362E-2,9.765517235E0,9.766147860E0
1.205294836E0,9.614156187E-2,-5.617754906E-2,9.761936188E0,9.762571242E0
1.207294836E0,9.496361762E-2,-5.016331375E-2,9.765354156E0,9.765944719E0
1.209294836E0,9.259814769E-2,-4.531745240E-2,9.768304825E0,9.768848819E0
1.211294836E0,8.701486886E-2,-4.140053689E-2,9.760375023E0,9.760850689E0
1.213294836E0,8.949526399E-2,-4.220498726E-2,9.763066292E0,9.763567692E0
1.215294836E0,8.499416709E-2,-4.726154357E-2,9.763966560E0,9.764450863E0
1.217294836E0,8.905472606E-2,-5.020162091E-2,9.764081001E0,9.764616160E0
1.219294836E0,9.097008407E-2,-5.555505678E-2,9.765957832E0,9.766539526E0
1.221294836E0,8.512823284E-2,-5.613924190E-2,9.764933586E0,9.765466009E0
1.223294836E0,9.244491905E-2,-5.634992942E-2,9.765067101E0,9.765667251E0
1.225294836E0,9.835380316E-2,-5.160941184E-2,9.759101868E0,9.759733924E0
1.227294836E0,9.995312989E-2,-5.454949290E-2,9.754303932E0,9.754968553E0
1.229294836E0,9.114246815E-2,-6.263231486E-2,9.757157326E0,9.757784013E0
1.231294836E0,8.736921102E-2,-5.942408741E-2,9.759063721E0,9.759635716E0
1.233296399E0,9.234914929E-2,-5.695326999E-2,9.763698578E0,9.764301407E0
1.235294836E0,8.629661053E-2,-5.814079195E-2,9.762826920E0,9.763381428E0
1.237294836E0,8.432378620E-2,-5.969223753E-2,9.764368057E0,9.764914604E0
1.239294836E0,9.137231112E-2,-5.555505678E-2,9.758651733E0,9.759237620E0
1.241294836E0,9.103712440E-2,-6.014234573E-2,9.744420052E0,9.745030888E0
1.243294836E0,8.481220156E-2,-6.543832272E-2,9.739191055E0,9.739780167E0
1.245294836E0,8.596141636E-2,-6.418376416E-2,9.746364594E0,9.746954997E0
1.247294836E0,8.265741915E-2,-5.905058980E-2,9.749485970E0,9.750015174E0
1.249294836E0,8.054094762E-2,-6.431782991E-2,9.748336792E0,9.748881671E0
1.251294836E0,8.263827115E-2,-5.506663769E-2,9.747217178E0,9.747723023E0
1.253294836E0,8.778101206E-2,-5.769068375E-2,9.746842384E0,9.747408383E0
1.255294836E0,9.528923035E-2,-6.181828678E-2,9.748585701E0,9.749247392E0
1.257294836E0,8.956229687E-2,-6.113833562E-2,9.752329826E0,9.752932705E0
1.259294836E0,9.385270625E-2,-6.036261469E-2,9.755423546E0,9.756061733E0
1.261294836E0,9.545203298E-2,-5.958689004E-2,9.758938789E0,9.759587490E0
1.263294836E0,9.871772677E-2,-5.783433467E-2,9.757233620E0,9.757904381E0
1.265294836E0,9.384313226E-2,-6.157886982E-2,9.760978699E0,9.761624027E0
1.267294836E0,9.438900650E-2,-5.906016752E-2,9.761207581E0,9.761842593E0
1.269294836E0,9.377609193E-2,-6.189490110E-2,9.757013321E0,9.757660267E0
1.271294836E0,9.520303458E-2,-6.056372449E-2,9.752522469E0,9.753175180E0
1.273294836E0,1.032188237E-1,-6.265147030E-2,9.748614311E0,9.749362047E0
1.275294836E0,1.087350622E-1,-6.249824166E-2,9.747531891E0,9.748338695E0
1.277294836E0,1.068292782E-1,-6.237374246E-2,9.747111320E0,9.747896290E0
1.279471399E0,9.657251835E-2,-5.996996164E-2,9.747178078E0,9.747840947E0
1.281294836E0,9.219592065E-2,-5.731718987E-2,9.744630814E0,9.745235505E0
1.283294836E0,9.896671772E-2,-5.463568121E-2,9.741969109E0,9.742624984E0
1.285294836E0,9.616071731E-2,-5.981673300E-2,9.749246597E0,9.749904314E0
1.287294836E0,9.368990362E-2,-4.864060134E-2,9.755069733E0,9.755640891E0
1.289294836E0,9.276095033E-2,-4.579629004E-2,9.750837326E0,9.751386079E0
1.291294836E0,8.641152829E-2,-5.310339481E-2,9.753307343E0,9.753834684E0
1.293294836E0,7.680599391E-2,-5.016331375E-2,9.760221481E0,9.760652585E0
1.295294836E0,7.962157577E-2,-5.371630937E-2,9.759963036E0,9.760435620E0
1.297294836E0,8.397901803E-2,-5.593812838E-2,9.757675171E0,9.758196877E0
1.299294836E0,7.840532064E-2,-5.961562321E-2,9.754667282E0,9.755164540E0
1.301294836E0,7.774451375E-2,-5.257666856E-2,9.755146027E0,9.755597497E0
1.303294836E0,7.820419967E-2,-5.094861239E-2,9.750807762E0,9.751254467E0
1.305294836E0,7.733272016E-2,-4.674439132E-2,9.746191025E0,9.746609917E0
1.307294836E0,6.465302408E-2,-5.086242035E-2,9.743088722E0,9.743435988E0
1.309294836E0,5.827486888E-2,-5.610093474E-2,9.746651649E0,9.746987312E0
1.311294836E0,6.165548414E-2,-5.353435129E-2,9.754590988E0,9.754932735E0
1.313294836E0,6.307285279E-2,-5.424303561E-2,9.754801750E0,9.755156466E0
1.315294836E0,7.241981477E-2,-5.754703283E-2,9.754897118E0,9.755335672E0
1.317294836E0,7.522581518E-2,-5.731718987E-2,9.754131317E0,9.754589788E0
1.319294836E0,8.391197771E-2,-5.560293794E-2,9.753632545E0,9.754151974E0
1.321294836E0,8.222646266E-2,-5.706819147E-2,9.742600441E0,9.743114560E0
1.323294836E0,8.303091675E-2,-5.920381844E-2,9.745933533E0,9.746467034E0
1.325294836E0,7.839573920E-2,-6.252697110E-2,9.747667313E0,9.748183090E0
1.327294836E0,7.960242033E-2,-5.745126307E-2,9.756420135E0,9.756914013E0
1.329294836E0,8.149863034E-2,-5.581362918E-2,9.756381989E0,9.756882017E0
1.331294836E0,8.403647691E-2,-5.981673300E-2,9.752779961E0,9.753325440E0
1.333294836E0,9.036675096E-2,-5.827486888E-2,9.750156403E0,9.750749304E0
1.335294836E0,8.463024348E-2,-4.983770475E-2,9.753413200E0,9.753907685E0
1.337294836E0,8.510908484E-2,-5.034527183E-2,9.760413170E0,9.760914068E0
1.339294836E0,9.464758635E-2,-5.184883252E-2,9.763315201E0,9.763911623E0
1.341294836E0,1.007192731E-1,-5.543055758E-2,9.759225845E0,9.759902972E0
1.343294836E0,1.031613648E-1,-6.754522026E-2,9.760259628E0,9.761038502E0
1.345294836E0,1.042052358E-1,-6.794743985E-2,9.769482613E0,9.770274618E0
1.347294836E0,9.582553059E-2,-5.783433467E-2,9.775009155E0,9.775649918E0
1.349294836E0,9.223423153E-2,-5.602432042E-2,9.773399353E0,9.773995130E0
1.351294836E0,9.692686796E-2,-6.947973371E-2,9.768572807E0,9.769300740E0
1.353294836E0,9.306740761E-2,-7.333918661E-2,9.769512177E0,9.770230721E0
1.355294836E0,9.736739099E-2,-6.930734962E-2,9.769147873E0,9.769878918E0
1.357294836E0,9.864111245E-2,-7.239108533E-2,9.771321297E0,9.772087311E0
1.359471399E0,1.006235108E-1,-6.928820163E-2,9.764513016E0,9.765277281E0
1.361294836E0,9.827718884E-2,-6.605123729E-2,9.764713287E0,9.765431212E0
1.363294836E0,9.264602512E-2,-6.695145369E-2,9.768553734E0,9.769222478E0
1.365294836E0,8.883445710E-2,-6.141605973E-2,9.764244080E0,9.764841317E0
1.367294836E0,9.031886607E-2,-5.287355185E-2,9.764780045E0,9.765340876E0
1.369296399E0,9.162130952E-2,-5.114014819E-2,9.760882378E0,9.761446336E0
1.371294836E0,9.232999384E-2,-4.955039918E-2,9.760087967E0,9.760650449E0
1.373294836E0,8.424717188E-2,-5.216486752E-2,9.755662918E0,9.756166139E0
1.375294836E0,7.702626288E-2,-4.659116268E-2,9.754312515E0,9.754727901E0
1.377294836E0,7.391379774E-2,-4.314351454E-2,9.758890152E0,9.759265424E0
1.379294836E0,7.610688359E-2,-4.431188479E-2,9.759311676E0,9.759709022E0
1.381294836E0,7.413406670E-2,-5.358223245E-2,9.761303902E0,9.761732468E0
1.383294836E0,7.914273441E-2,-5.352477357E-2,9.762740135E0,9.763207640E0
1.385294836E0,8.215942234E-2,-5.142745376E-2,9.756496429E0,9.756977889E0
1.387294836E0,8.117301017E-2,-5.115929991E-2,9.758211136E0,9.758682847E0
1.389294836E0,7.354030013E-2,-4.927267134E-2,9.759617805E0,9.760019246E0
1.391294836E0,8.065586537E-2,-5.311297253E-2,9.759609222E0,9.760087015E0
1.393440149E0,7.944919169E-2,-5.310339481E-2,9.764865875E0,9.765333466E0
1.395294836E0,8.307879418E-2,-5.025908351E-2,9.761821747E0,9.762304640E0
1.397294836E0,9.050082415E-2,-4.446511343E-2,9.758488655E0,9.759009600E0
1.399294836E0,9.237787873E-2,-4.482903332E-2,9.750424385E0,9.750965029E0
1.401294836E0,9.504023194E-2,-5.135083944E-2,9.749485970E0,9.750084421E0
1.403294836E0,9.715671092E-2,-5.444414541E-2,9.756687164E0,9.757322789E0
1.405294836E0,9.750147164E-2,-5.389827117E-2,9.759943962E0,9.760579783E0
1.407294836E0,9.649590403E-2,-5.652231351E-2,9.767433167E0,9.768073346E0
1.409294836E0,9.336429089E-2,-4.997177795E-2,9.772126198E0,9.772699959E0
1.411294836E0,9.875603765E-2,-4.340208694E-2,9.769310951E0,9.769906497E0
1.413294836E0,9.559568763E-2,-4.185064882E-2,9.763381958E0,9.763939639E0
1.415294836E0,9.165961295E-2,-5.182967708E-2,9.760164261E0,9.760732257E0
1.417294836E0,9.031886607E-2,-5.564124510E-2,9.763774872E0,9.764351140E0
1.419294836E0,8.926542103E-2,-4.824795201E-2,9.764320374E0,9.764847594E0
1.421294836E0,9.083601087E-2,-4.057693109E-2,9.759024620E0,9.759531710E0
1.423294836E0,9.425493330E-2,-4.217625782E-2,9.759579659E0,9.760125918E0
1.425294836E0,9.152553976E-2,-4.136222973E-2,9.759742737E0,9.760259528E0
1.427294836E0,8.972510695E-2,-4.326801375E-2,9.764225006E0,9.764733109E0
1.429294836E0,8.110597730E-2,-4.784572497E-2,9.761639595E0,9.762093780E0
1.431294836E0,7.527370751E-2,-4.960786179E-2,9.761007309E0,9.761423603E0
1.433296399E0,8.102936298E-2,-5.110184103E-2,9.765374184E0,9.765844055E0
1.435294836E0,8.018659800E-2,-5.317043141E-2,9.766455650E0,9.766929556E0
1.437294836E0,8.606676757E-2,-5.058469251E-2,9.765786171E0,9.766296424E0
1.439471399E0,8.910261095E-2,-4.393838719E-2,9.763678551E0,9.764183975E0
1.441294836E0,8.513780683E-2,-4.516422376E-2,9.765690804E0,9.766166347E0
1.443294836E0,7.746678591E-2,-4.797980189E-2,9.759398460E0,9.759823844E0
1.445294836E0,8.101020753E-2,-5.084326491E-2,9.753718376E0,9.754187298E0
1.447296399E0,8.661264181E-2,-5.162856728E-2,9.755088806E0,9.755609918E0
1.449294836E0,8.067502081E-2,-5.081453547E-2,9.755481720E0,9.755947630E0
1.451294836E0,6.920200586E-2,-5.855259672E-2,9.757530212E0,9.757951279E0
1.453294836E0,7.210377604E-2,-5.718311295E-2,9.757913589E0,9.758347528E0
1.455294836E0,7.690175623E-2,-5.531563610E-2,9.756334305E0,9.756794185E0
1.457294836E0,7.414364070E-2,-5.318000913E-2,9.752608299E0,9.753035119E0
1.459294836E0,8.053137362E-2,-5.783433467E-2,9.753345490E0,9.753849412E0
1.461294836E0,8.070375025E-2,-5.964435264E-2,9.753374100E0,9.753890346E0
1.463294836E0,8.565495908E-2,-6.037218869E-2,9.753786087E0,9.754349010E0
1.465294836E0,8.265741915E-2,-5.716396123E-2,9.755835533E0,9.756353157E0
1.467294836E0,8.808746934E-2,-4.755842313E-2,9.755931854E0,9.756445436E0
1.469294836E0,8.127836138E-2,-4.569094628E-2,9.753278732E0,9.753724410E0
1.471294836E0,7.245812565E-2,-5.052723363E-2,9.756198883E0,9.756598784E0
1.473294836E0,7.512047887E-2,-5.032612011E-2,9.754686356E0,9.755105417E0
1.475294836E0,7.390422374E-2,-4.899494350E-2,9.754140854E0,9.754543871E0
1.477294836E0,7.350198925E-2,-5.283524469E-2,9.758669853E0,9.759089681E0
1.479294836E0,6.986280531E-2,-4.578671232E-2,9.753919601E0,9.754277258E0
1.481294836E0,7.295611501E-2,-4.396712035E-2,9.747694969E0,9.748067137E0
1.483294836E0,7.511088997E-2,-5.033569783E-2,9.751056671E0,9.751475864E0
1.485294836E0,7.704541087E-2,-5.506663769E-2,9.750597000E0,9.751056875E0
1.487294836E0,7.060979307E-2,-5.488467962E-2,9.751909256E0,9.752319325E0
1.489471399E0,7.022672147E-2,-5.362053961E-2,9.755069733E0,9.755469873E0
1.491294836E0,6.627149880E-2,-5.873455480E-2,9.753670692E0,9.754072669E0
1.493294836E0,7.216124237E-2,-5.618712679E-2,9.747474670E0,9.747903707E0
1.495294836E0,8.280107379E-2,-4.870763794E-2,9.742170334E0,9.742643957E0
1.497294836E0,7.784985751E-2,-4.335420579E-2,9.741489410E0,9.741896947E0
1.499294836E0,7.997591048E-2,-4.272213206E-2,9.739583969E0,9.740006017E0
1.501294836E0,8.510908484E-2,-4.420653731E-2,9.742562294E0,9.743034323E0
1.503294836E0,8.130709082E-2,-4.459919035E-2,9.748633385E0,9.749074459E0
1.505294836E0,7.390422374E-2,-4.520253092E-2,9.749725342E0,9.750110222E0
1.507294836E0,6.882851571E-2,-4.750096053E-2,9.750309944E0,9.750668578E0
1.509294836E0,5.883990228E-2,-5.247132480E-2,9.752243996E0,9.752562654E0
1.511294836E0,6.278554350E-2,-5.731718987E-2,9.753403664E0,9.753774157E0
1.513294836E0,6.600335240E-2,-5.131253228E-2,9.744927406E0,9.745286018E0
1.515294836E0,5.965393037E-2,-5.294058472E-2,9.749629974E0,9.749956202E0
1.517294836E0,5.594770610E-2,-5.886863172E-2,9.754532814E0,9.754870890E0
1.519471399E0,5.837063491E-2,-6.290046871E-2,9.759368896E0,9.759746147E0
1.521294836E0,6.561069936E-2,-5.553590506E-2,9.760145187E0,9.760523709E0
1.523294836E0,6.285258383E-2,-5.247132480E-2,9.755002975E0,9.755346572E0
1.525294836E0,5.974011868E-2,-5.581362918E-2,9.750251770E0,9.750594527E0
1.527294836E0,6.278554350E-2,-5.851428956E-2,9.746105194E0,9.746483079E0
1.529294836E0,6.692273170E-2,-5.987419561E-2,9.747656822E0,9.748070429E0
1.531294836E0,6.529466808E-2,-6.375280023E-2,9.753096581E0,9.753523503E0
1.533294836E0,6.324522942E-2,-6.808152050E-2,9.754342079E0,9.754784695E0
1.535294836E0,5.666596442E-2,-6.840712577E-2,9.750290871E0,9.750695495E0
1.537294836E0,5.783433467E-2,-6.578309089E-2,9.745827675E0,9.746221283E0
1.539294836E0,6.816770881E-2,-5.808333308E-2,9.751841545E0,9.752252767E0
1.541294836E0,7.019799203E-2,-5.973054469E-2,9.762385368E0,9.762820472E0
1.543294836E0,7.566635311E-2,-4.998135194E-2,9.768160820E0,9.768581747E0
1.545294836E0,8.126877993E-2,-4.378515854E-2,9.763036728E0,9.763473148E0
1.547294836E0,7.897035033E-2,-4.400542751E-2,9.754897118E0,9.755316016E0
1.549294836E0,7.657615095E-2,-4.913859442E-2,9.758201599E0,9.758625772E0
1.551294836E0,6.769844890E-2,-4.878425226E-2,9.760969162E0,9.761325830E0
1.553294836E0,6.013277173E-2,-4.533660412E-2,9.757569313E0,9.757859922E0
1.555294836E0,6.616616249E-2,-5.138914660E-2,9.748480797E0,9.748840785E0
1.557294836E0,6.791871786E-2,-4.223372042E-2,9.746986389E0,9.747314518E0
1.559294836E0,6.965211779E-2,-4.305732250E-2,9.743318558E0,9.743662652E0
1.561294836E0,8.147946745E-2,-4.152503610E-2,9.756314278E0,9.756742874E0
1.563294836E0,8.413224667E-2,-4.195598885E-2,9.760949135E0,9.761401874E0
1.565294836E0,8.423759788E-2,-4.223372042E-2,9.755481720E0,9.755936821E0
1.567294836E0,7.933426648E-2,-4.174530134E-2,9.754303932E0,9.754715875E0
1.569294836E0,8.579861373E-2,-4.609316960E-2,9.754581451E0,9.755067671E0
1.571294836E0,7.737102360E-2,-4.019385949E-2,9.763545036E0,9.763934325E0
1.573294836E0,6.863696873E-2,-4.011724517E-2,9.767375946E0,9.767699489E0
1.575294836E0,6.357084215E-2,-4.553771764E-2,9.767298698E0,9.767611724E0
1.577294836E0,6.792829186E-2,-4.686889425E-2,9.772068024E0,9.772416508E0
1.579294836E0,7.419151813E-2,-5.423345417E-2,9.773121834E0,9.773553910E0
1.581294836E0,7.500555366E-2,-5.667554215E-2,9.764052391E0,9.764504956E0
1.583294836E0,7.865431160E-2,-5.349604413E-2,9.758766174E0,9.759229763E0
1.585294836E0,7.345411181E-2,-4.620809108E-2,9.759780884E0,9.760166679E0
1.587294836E0,6.887639314E-2,-4.260721058E-2,9.757003784E0,9.757339913E0
1.589294836E0,6.145436689E-2,-4.137180746E-2,9.757962227E0,9.758243443E0
1.591294836E0,6.282385439E-2,-4.864060134E-2,9.761256218E0,9.761579570E0
1.593294836E0,6.591715664E-2,-4.403415695E-2,9.760892868E0,9.761214764E0
1.595294836E0,6.585012376E-2,-3.940856084E-2,9.763276100E0,9.763577699E0
1.597294836E0,7.037995011E-2,-3.650678694E-2,9.761275291E0,9.761597277E0
1.599471399E0,7.554185390E-2,-3.508942202E-2,9.763421059E0,9.763776350E0
1.601294836E0,7.094498724E-2,-3.925533220E-2,9.765028954E0,9.765365566E0
1.603294836E0,7.095456123E-2,-3.820187971E-2,9.764741898E0,9.765074411E0
1.605294836E0,7.186435908E-2,-4.450342059E-2,9.760067940E0,9.760433967E0
1.607294836E0,6.633853912E-2,-4.056735337E-2,9.759742737E0,9.760052500E0
1.609440149E0,6.255570054E-2,-3.435200453E-2,9.756678581E0,9.756939593E0
1.611294836E0,6.110002846E-2,-3.792415559E-2,9.756467819E0,9.756732843E0
1.613319836E0,6.201940030E-2,-4.369897023E-2,9.749217987E0,9.749513186E0
1.615294836E0,6.172252074E-2,-3.754108399E-2,9.747858047E0,9.748125744E0
1.617294836E0,6.270892918E-2,-3.828807548E-2,9.746804237E0,9.747081165E0
1.619294836E0,6.259401143E-2,-4.533660412E-2,9.749649048E0,9.749955383E0
1.621294836E0,6.619488448E-2,-3.753150627E-2,9.754437447E0,9.754734249E0
1.623294836E0,7.389463484E-2,-3.545333818E-2,9.755385399E0,9.755729682E0
1.625294836E0,7.405745238E-2,-3.942771628E-2,9.760480881E0,9.760841463E0
1.627294836E0,7.652826607E-2,-3.722504899E-2,9.761390686E0,9.761761645E0
1.629294836E0,7.589619607E-2,-5.522944778E-2,9.757109642E0,9.757561124E0
1.631294836E0,6.219178438E-2,-6.007530913E-2,9.749094009E0,9.749477466E0
1.633294836E0,5.827486888E-2,-5.171475559E-2,9.744995117E0,9.745306573E0
1.635294836E0,6.121494994E-2,-5.475060269E-2,9.742313385E0,9.742659544E0
1.637294836E0,6.434656680E-2,-5.953900889E-2,9.745080948E0,9.745475261E0
1.639443274E0,7.015968114E-2,-6.080314517E-2,9.748845100E0,9.749287163E0
1.641579211E0,7.686345279E-2,-5.537309498E-2,9.756525040E0,9.756984935E0
1.643330774E0,7.495766133E-2,-5.862921104E-2,9.764492989E0,9.764956700E0
1.645294836E0,6.998730451E-2,-6.078399345E-2,9.763717651E0,9.764157685E0
1.647294836E0,6.620446593E-2,-5.525817350E-2,9.760413170E0,9.760794114E0
1.649294836E0,6.100426242E-2,-6.405925751E-2,9.755471230E0,9.755872284E0
1.651294836E0,5.404191837E-2,-6.629065424E-2,9.758794785E0,9.759169566E0
1.653294836E0,4.925351590E-2,-5.734591931E-2,9.756888390E0,9.757181228E0
1.655294836E0,5.620627850E-2,-5.175306275E-2,9.750462532E0,9.750761874E0
1.657294836E0,6.204812974E-2,-5.702988431E-2,9.742676735E0,9.743041226E0
1.659294836E0,6.023811176E-2,-5.907932296E-2,9.742868423E0,9.743233761E0
1.661294836E0,5.438668281E-2,-5.956773832E-2,9.744180679E0,9.744514526E0
1.663294836E0,5.802587047E-2,-5.227021128E-2,9.749352455E0,9.749665249E0
1.665294836E0,5.879201367E-2,-6.157886982E-2,9.750022888E0,9.750394596E0
1.667294836E0,5.507621914E-2,-5.794925615E-2,9.751755714E0,9.752083419E0
1.669294836E0,5.217444152E-2,-5.101565272E-2,9.754810333E0,9.755083260E0
1.671294836E0,5.825571343E-2,-4.759673029E-2,9.752416611E0,9.752706749E0
1.673294836E0,5.910805240E-2,-5.034527183E-2,9.755194664E0,9.755503644E0
1.675294836E0,5.267243460E-2,-5.157110468E-2,9.753268242E0,9.753546809E0
1.677294836E0,4.668693244E-2,-5.203079060E-2,9.754705429E0,9.754955914E0
1.679471399E0,4.996220022E-2,-5.608177930E-2,9.752321243E0,9.752610472E0
1.681294836E0,5.589024350E-2,-5.852386355E-2,9.743443489E0,9.743779543E0
1.683294836E0,5.923255160E-2,-5.530606210E-2,9.745838165E0,9.746175086E0
1.685294836E0,5.687665567E-2,-4.838202521E-2,9.745464325E0,9.745750391E0
1.687294836E0,5.572744086E-2,-4.802768677E-2,9.753901482E0,9.754178916E0
1.689294836E0,6.250781566E-2,-4.041412473E-2,9.761294365E0,9.761578162E0
1.691294836E0,6.703764945E-2,-4.228160158E-2,9.765900612E0,9.766222225E0
1.693294836E0,6.582139432E-2,-4.697423428E-2,9.767280579E0,9.767615315E0
1.695294836E0,6.213432178E-2,-5.229894072E-2,9.760375023E0,9.760712906E0
1.697294836E0,6.775590777E-2,-5.132211000E-2,9.756975174E0,9.757345406E0
1.699294836E0,6.174167246E-2,-5.125506967E-2,9.747590065E0,9.747920352E0
1.701294836E0,5.490383133E-2,-5.710649863E-2,9.748633385E0,9.748955249E0
1.703294836E0,5.718311295E-2,-5.733634159E-2,9.748193741E0,9.748530072E0
1.705294836E0,6.123410538E-2,-5.895482376E-2,9.748002052E0,9.748372649E0
1.707294836E0,6.555324793E-2,-6.457640976E-2,9.750654221E0,9.751088404E0
1.709294836E0,6.642472744E-2,-6.036261469E-2,9.752377510E0,9.752790523E0
1.711294836E0,6.177997962E-2,-5.493256450E-2,9.749265671E0,9.749616170E0
1.713294836E0,6.116706505E-2,-5.146576092E-2,9.748356819E0,9.748684568E0
1.715294836E0,6.990111619E-2,-4.427357763E-2,9.746028900E0,9.746380130E0
1.717294836E0,6.195236370E-2,-4.720408097E-2,9.743328094E0,9.743639396E0
1.719294836E0,6.800490618E-2,-5.863878503E-2,9.741307259E0,9.741721115E0
1.721294836E0,6.737283617E-2,-5.602432042E-2,9.747360229E0,9.747754063E0
1.723294836E0,6.684611738E-2,-5.544013530E-2,9.748030663E0,9.748417503E0
1.725294836E0,7.153874636E-2,-5.355350673E-2,9.750147820E0,9.750557331E0
1.727294836E0,7.264965773E-2,-5.535394326E-2,9.747446060E0,9.747873959E0
1.729294836E0,7.141424716E-2,-5.807375535E-2,9.744065285E0,9.744500030E0
1.731294836E0,7.222828269E-2,-5.080495775E-2,9.742648125E0,9.743048319E0
1.733294836E0,7.688260823E-2,-4.257848486E-2,9.739956856E0,9.740353352E0
1.735294836E0,7.285077125E-2,-3.961925209E-2,9.741910934E0,9.742263883E0
1.737294836E0,7.626011223E-2,-3.816357255E-2,9.742782593E0,9.743155788E0
1.739294836E0,8.654560149E-2,-4.739561677E-2,9.742112160E0,9.742611858E0
1.741294836E0,9.337386489E-2,-5.161898956E-2,9.746163368E0,9.746747334E0
1.743294836E0,9.184157848E-2,-4.719450325E-2,9.751210213E0,9.751756909E0
1.745294836E0,8.425674587E-2,-4.483860731E-2,9.750961304E0,9.751428411E0
1.747294836E0,8.811619878E-2,-4.688804597E-2,9.753556252E0,9.754066973E0
1.749294836E0,9.219592065E-2,-4.240610078E-2,9.758172989E0,9.758700654E0
1.751294836E0,9.911994636E-2,-4.086423665E-2,9.757329941E0,9.757918949E0
1.753294836E0,9.744400531E-2,-4.164953157E-2,9.760682106E0,9.761257357E0
1.755294836E0,9.312487394E-2,-4.520253092E-2,9.759043694E0,9.759592682E0
1.757294836E0,8.647856861E-2,-4.985685647E-2,9.756583214E0,9.757093843E0
1.759471399E0,8.604760468E-2,-4.465664923E-2,9.753403664E0,9.753885453E0
1.761294836E0,8.827900887E-2,-4.109407961E-2,9.751439095E0,9.751925262E0
1.763294836E0,8.585607260E-2,-4.010766745E-2,9.748595238E0,9.749055800E0
1.765294836E0,7.787859440E-2,-3.874776140E-2,9.746125221E0,9.746513392E0
1.767294836E0,6.986280531E-2,-4.143884405E-2,9.751219749E0,9.751558060E0
1.769294836E0,6.773675233E-2,-4.621766880E-2,9.749544144E0,9.749888992E0
1.771294836E0,7.650911063E-2,-5.127422512E-2,9.747800827E0,9.748235925E0
1.773294836E0,7.705498487E-2,-4.950251430E-2,9.747120857E0,9.747551127E0
1.775294836E0,7.242938876E-2,-4.387135431E-2,9.754063606E0,9.754431175E0
1.777294836E0,7.487147301E-2,-5.457821861E-2,9.759072304E0,9.759512116E0
1.779294836E0,7.867346704E-2,-5.820783228E-2,9.756784439E0,9.757275248E0
1.781294836E0,8.107724786E-2,-5.648400635E-2,9.752072334E0,9.752572931E0
1.783294836E0,7.215166837E-2,-5.728846043E-2,9.751497269E0,9.751932466E0
1.785294836E0,6.805279106E-2,-5.562209338E-2,9.757482529E0,9.757878371E0
1.787294836E0,6.277596951E-2,-5.387911573E-2,9.762290001E0,9.762640516E0
1.789294836E0,5.817909911E-2,-4.026089609E-2,9.763861656E0,9.764117993E0
1.791294836E0,6.853163242E-2,-3.835510835E-2,9.762970924E0,9.763286791E0
1.793294836E0,7.173985988E-2,-4.657201096E-2,9.760211945E0,9.760586702E0
1.795294836E0,7.154832780E-2,-4.629428312E-2,9.753833771E0,9.754206044E0
1.797294836E0,7.380844653E-2,-4.927267134E-2,9.754600525E0,9.755004197E0
1.799294836E0,8.138370514E-2,-4.531745240E-2,9.759350777E0,9.759795313E0
1.801294836E0,8.488881588E-2,-4.376600683E-2,9.767567635E0,9.768034555E0
1.803294836E0,7.993760705E-2,-4.602613300E-2,9.760269165E0,9.760705026E0
1.805294836E0,7.831912488E-2,-4.747223109E-2,9.757003784E0,9.757433594E0
1.807294836E0,7.469909638E-2,-5.707776919E-2,9.744879723E0,9.745333172E0
1.809294836E0,7.027460635E-2,-5.404191837E-2,9.736452103E0,9.736855683E0
1.811294836E0,6.405925751E-2,-6.085103378E-2,9.737715721E0,9.738116548E0
1.813294836E0,6.293877214E-2,-6.726749241E-2,9.743836403E0,9.744271858E0
1.815294836E0,6.603208184E-2,-6.551493704E-2,9.742581367E0,9.743025410E0
1.817294836E0,6.919243187E-2,-5.906974524E-2,9.734900475E0,9.735325576E0
1.819294836E0,6.944143027E-2,-5.987419561E-2,9.736653328E0,9.737085039E0
1.821294836E0,6.747817993E-2,-6.670246273E-2,9.737266541E0,9.737728801E0
1.823294836E0,6.721960753E-2,-6.725791097E-2,9.736155510E0,9.736619856E0
1.825440149E0,5.875370651E-2,-6.520847976E-2,9.746364594E0,9.746759817E0
1.827294836E0,6.149267405E-2,-5.087199807E-2,9.746125221E0,9.746451977E0
1.829294836E0,5.913678184E-2,-4.178360850E-2,9.742034912E0,9.742304002E0
1.831294836E0,6.381984055E-2,-4.214752465E-2,9.737141609E0,9.737441969E0
1.833294836E0,6.404968351E-2,-4.989516363E-2,9.743491173E0,9.743829438E0
1.835294836E0,6.459555775E-2,-4.666777700E-2,9.739392281E0,9.739718295E0
1.837294836E0,6.706637889E-2,-4.045243189E-2,9.736960411E0,9.737275407E0
1.839472961E0,7.062894851E-2,-3.537672386E-2,9.740072250E0,9.740392569E0
1.841571399E0,6.373365223E-2,-4.019385949E-2,9.743299484E0,9.743590835E0
1.843294836E0,6.136817858E-2,-4.813303053E-2,9.747599602E0,9.747911614E0
1.845294836E0,6.342719495E-2,-5.157110468E-2,9.746047974E0,9.746390803E0
1.847294836E0,6.409756839E-2,-4.852567986E-2,9.749390602E0,9.749722065E0
1.849294836E0,5.868667364E-2,-4.645708948E-2,9.754830360E0,9.755117516E0
1.851294836E0,5.453033745E-2,-4.862144962E-2,9.755337715E0,9.755611285E0
1.853294836E0,5.994123593E-2,-4.982812330E-2,9.753250122E0,9.753561592E0
1.855294836E0,5.793968216E-2,-4.944505170E-2,9.756334305E0,9.756631636E0
1.857294836E0,5.773856863E-2,-5.246174708E-2,9.757693291E0,9.758005141E0
1.859294836E0,5.273947492E-2,-5.265328288E-2,9.759617805E0,9.759902332E0
1.861294836E0,4.734773189E-2,-4.992389306E-2,9.766905785E0,9.767148141E0
1.863294836E0,4.757757485E-2,-5.019204319E-2,9.763305664E0,9.763550602E0
1.865294836E0,5.490383133E-2,-5.270116776E-2,9.759982109E0,9.760278818E0
1.867294836E0,6.114790961E-2,-5.218401924E-2,9.758430481E0,9.758761586E0
1.869294836E0,6.087975949E-2,-4.676354676E-2,9.751008987E0,9.751311166E0
1.871294836E0,6.386772543E-2,-4.477157071E-2,9.755375862E0,9.755687664E0
1.873294836E0,5.452075973E-2,-3.554910794E-2,9.753786087E0,9.754003244E0
1.875294836E0,5.711607635E-2,-3.354755417E-2,9.750558853E0,9.750783847E0
1.877294836E0,5.430049449E-2,-3.363374621E-2,9.752100945E0,9.752310116E0
1.879294836E0,5.784391239E-2,-3.560656682E-2,9.759512901E0,9.759749270E0
1.881294836E0,5.764279887E-2,-5.252878740E-2,9.760460854E0,9.760772410E0
1.883294836E0,6.490202248E-2,-6.027641892E-2,9.761016846E0,9.761418718E0
1.885294836E0,6.394433975E-2,-6.698976457E-2,9.768850327E0,9.769289289E0
1.887294836E0,6.494033337E-2,-6.831136346E-2,9.773370743E0,9.773825217E0
1.889294836E0,7.129932195E-2,-6.211517006E-2,9.771532059E0,9.771989596E0
1.891294836E0,6.865613163E-2,-5.246174708E-2,9.769683838E0,9.770065926E0
1.893294836E0,6.698976457E-2,-5.354392529E-2,9.770555496E0,9.770931853E0
1.895294836E0,6.547663361E-2,-5.541140214E-2,9.764770508E0,9.765147243E0
1.897294836E0,6.461471319E-2,-5.466441438E-2,9.763822556E0,9.764189375E0
1.899294836E0,5.793968216E-2,-5.378334969E-2,9.761936188E0,9.762256286E0
1.901294836E0,5.965393037E-2,-4.972278327E-2,9.753039360E0,9.753348538E0
1.903294836E0,6.793786585E-2,-4.796064645E-2,9.750587463E0,9.750942091E0
1.905294836E0,7.651868463E-2,-5.147533864E-2,9.747531891E0,9.747968136E0
1.907294836E0,7.922892272E-2,-4.967489466E-2,9.745473862E0,9.745922512E0
1.909294836E0,7.717949152E-2,-4.574840516E-2,9.742964745E0,9.743377833E0
1.911294836E0,8.001422137E-2,-5.122634023E-2,9.746306419E0,9.746769477E0
1.913294836E0,8.113470674E-2,-5.566997826E-2,9.743586540E0,9.744083367E0
1.915294836E0,7.872135192E-2,-4.788403213E-2,9.742955208E0,9.743390894E0
1.917294836E0,7.377014309E-2,-5.413768813E-2,9.739871025E0,9.740300843E0
1.919471399E0,6.797617674E-2,-5.699157715E-2,9.734852791E0,9.735256939E0
1.921294836E0,6.902962178E-2,-5.535394326E-2,9.741853714E0,9.742255536E0
1.923296399E0,7.183562219E-2,-5.438668281E-2,9.745051384E0,9.745467908E0
1.925294836E0,7.472781837E-2,-5.162856728E-2,9.741920471E0,9.742343877E0
1.927294836E0,7.494808733E-2,-4.289451614E-2,9.742351532E0,9.742734243E0
1.929294836E0,7.533115894E-2,-5.067088455E-2,9.745856285E0,9.746279139E0
1.931294836E0,7.473740727E-2,-5.511452630E-2,9.745339394E0,9.745781815E0
1.933294836E0,7.680599391E-2,-5.421430245E-2,9.743586540E0,9.744040077E0
1.935294836E0,7.820419967E-2,-5.174348876E-2,9.747753143E0,9.748204175E0
1.937294836E0,8.935160935E-2,-5.115929991E-2,9.749083519E0,9.749627195E0
1.939294836E0,9.079770744E-2,-5.168602616E-2,9.754561424E0,9.755120924E0
1.941294836E0,9.671617299E-2,-5.015373603E-2,9.753632545E0,9.754240988E0
1.943294836E0,9.169792384E-2,-4.667735845E-2,9.750414848E0,9.750957748E0
1.945294836E0,8.965806663E-2,-4.684973881E-2,9.753297806E0,9.753822407E0
1.947294836E0,8.897811174E-2,-4.398627579E-2,9.754819870E0,9.755324833E0
1.949294836E0,7.823293656E-2,-4.581544548E-2,9.757826805E0,9.758247968E0
1.951294836E0,6.789956242E-2,-5.012500659E-2,9.764694214E0,9.765058933E0
1.953294836E0,6.596504152E-2,-5.280651152E-2,9.763362885E0,9.763728526E0
1.955294836E0,7.043741643E-2,-5.436753109E-2,9.763497353E0,9.763902796E0
1.957294836E0,6.696103513E-2,-5.381207541E-2,9.759378433E0,9.759756499E0
1.959294836E0,7.073429972E-2,-6.069780141E-2,9.756334305E0,9.756779522E0
1.961294836E0,6.599377096E-2,-6.420291215E-2,9.753824234E0,9.754258782E0
1.963294836E0,7.310934365E-2,-6.089891493E-2,9.757233620E0,9.757697554E0
1.965296399E0,7.372225821E-2,-5.938578025E-2,9.758143425E0,9.758602602E0
1.967294836E0,6.806236506E-2,-5.330450833E-2,9.757147789E0,9.757530775E0
1.969294836E0,6.479667872E-2,-4.420653731E-2,9.760336876E0,9.760652066E0
1.971294836E0,5.863878503E-2,-4.149630293E-2,9.762453079E0,9.762717377E0
1.973294836E0,5.932832137E-2,-3.765600547E-2,9.760528564E0,9.760781510E0
1.975294836E0,6.198109314E-2,-3.893929720E-2,9.758460045E0,9.758734568E0
1.977294836E0,6.150225550E-2,-4.160165042E-2,9.754006386E0,9.754288995E0
1.979294836E0,6.893385202E-2,-4.361277819E-2,9.753001213E0,9.753342330E0
1.981294836E0,7.039910555E-2,-4.503972083E-2,9.752838135E0,9.753196209E0
1.983294836E0,6.850289553E-2,-4.483860731E-2,9.759350777E0,9.759694192E0
1.985294836E0,6.223966554E-2,-4.696466029E-2,9.760834694E0,9.761146110E0
1.987294836E0,6.315904111E-2,-4.352658987E-2,9.764551163E0,9.764852433E0
1.989294836E0,5.794925615E-2,-5.115929991E-2,9.765555382E0,9.765861319E0
1.991294836E0,5.526775494E-2,-5.431006849E-2,9.764214516E0,9.764521966E0
1.993294836E0,6.465302408E-2,-4.097915813E-2,9.761514664E0,9.761814782E0
1.995294836E0,8.120174706E-2,-4.075888917E-2,9.763841629E0,9.764264354E0
1.997294836E0,8.071332425E-2,-4.767334461E-2,9.760259628E0,9.760709780E0
1.999471399E0,7.996633649E-2,-5.143703148E-2,9.753930092E0,9.754393503E0
2.001294836E0,7.037037611E-2,-5.430049449E-2,9.748059273E0,9.748464501E0
2.003294836E0,6.665457040E-2,-5.588066950E-2,9.748682022E0,9.749070040E0
2.005294836E0,6.511271000E-2,-5.561251938E-2,9.754543304E0,9.754919143E0
2.007294836E0,6.458598375E-2,-5.288312584E-2,9.762606621E0,9.762963485E0
2.009294836E0,5.991250277E-2,-4.986643046E-2,9.759283066E0,9.759594363E0
2.011294836E0,5.950070173E-2,-4.468537867E-2,9.753067970E0,9.753351832E0
2.013294836E0,6.279512495E-2,-4.398627579E-2,9.759512901E0,9.759814040E0
2.015294836E0,6.762183458E-2,-4.398627579E-2,9.760403633E0,9.760736990E0
2.017294836E0,6.895300746E-2,-4.582501948E-2,9.767721176E0,9.768072042E0
2.019294836E0,6.469132751E-2,-4.715619609E-2,9.771024704E0,9.771352641E0
2.021296399E0,6.346549839E-2,-4.403415695E-2,9.772126198E0,9.772431494E0
2.023294836E0,5.851428956E-2,-4.733815789E-2,9.769712448E0,9.770002361E0
2.025294836E0,5.999869481E-2,-4.948335886E-2,9.770200729E0,9.770510260E0
2.027294836E0,6.004657596E-2,-5.845683068E-2,9.771465302E0,9.771824647E0
2.029294836E0,6.685569137E-2,-5.920381844E-2,9.764101028E0,9.764509392E0
2.031294836E0,6.684611738E-2,-5.460695177E-2,9.758287430E0,9.758669166E0
2.033294836E0,6.306327134E-2,-4.597824812E-2,9.752991676E0,9.753303933E0
2.035294836E0,7.669106871E-2,-4.554729536E-2,9.746431351E0,9.746839495E0
2.037294836E0,8.141243458E-2,-4.865017533E-2,9.750961304E0,9.751422520E0
2.039294836E0,7.339664549E-2,-4.974193498E-2,9.753250122E0,9.753653124E0
2.041294836E0,7.461290061E-2,-4.810430110E-2,9.749208450E0,9.749612634E0
2.043440149E0,8.132623881E-2,-4.318182543E-2,9.741853714E0,9.742288869E0
2.045294836E0,7.724652439E-2,-4.044285417E-2,9.742600441E0,9.742990609E0
2.047294836E0,7.170155644E-2,-3.957136720E-2,9.743893623E0,9.744237782E0
2.049294836E0,6.439444423E-2,-3.354755417E-2,9.746785164E0,9.747055613E0
2.051294836E0,6.845501810E-2,-3.581725806E-2,9.741556168E0,9.741862529E0
2.053294836E0,6.217262894E-2,-4.649539664E-2,9.733310699E0,9.733620315E0
2.055294836E0,5.379292369E-2,-4.865017533E-2,9.737275124E0,9.737545243E0
2.057294836E0,5.174348876E-2,-4.710831493E-2,9.743375778E0,9.743627052E0
2.059294836E0,4.557602480E-2,-4.436934739E-2,9.755059242E0,9.755266610E0
2.061294836E0,4.509718344E-2,-4.314351454E-2,9.765862465E0,9.766061888E0
2.063294836E0,5.686707795E-2,-3.714843467E-2,9.764291763E0,9.764528023E0
2.065294836E0,5.606262758E-2,-4.418738559E-2,9.756621361E0,9.756882490E0
2.067294836E0,5.429091677E-2,-4.986643046E-2,9.750434875E0,9.750713534E0
2.069294836E0,5.566997826E-2,-5.330450833E-2,9.753307343E0,9.753611876E0
2.071294836E0,5.467398837E-2,-4.555686936E-2,9.749994278E0,9.750254001E0
2.073294836E0,6.603208184E-2,-3.376782313E-2,9.750520706E0,9.750802764E0
2.075294836E0,6.245035678E-2,-4.018428177E-2,9.752004623E0,9.752287373E0
2.077294836E0,6.310158223E-2,-3.248452768E-2,9.748720169E0,9.748978510E0
2.079471399E0,6.220135838E-2,-3.947559744E-2,9.742475510E0,9.742754045E0
2.081294836E0,6.068822369E-2,-4.765418917E-2,9.738414764E0,9.738720455E0
2.083294836E0,6.976703554E-2,-4.335420579E-2,9.738387108E0,9.738733516E0
2.085294836E0,7.466079295E-2,-4.054819793E-2,9.735762596E0,9.736133304E0
2.087294836E0,7.513962686E-2,-4.183149338E-2,9.734881401E0,9.735261256E0
2.089294836E0,7.462248206E-2,-3.839341551E-2,9.735800743E0,9.736162421E0
2.091294836E0,7.499597222E-2,-3.841257095E-2,9.741806030E0,9.742170428E0
2.093294836E0,7.580042630E-2,-3.915956244E-2,9.747129440E0,9.747502834E0
2.095294836E0,7.258261740E-2,-4.729985073E-2,9.749476433E0,9.749861344E0
2.097294836E0,7.895119488E-2,-4.614105448E-2,9.755491257E0,9.755919841E0
2.099294836E0,7.444052398E-2,-5.134126171E-2,9.759685516E0,9.760104441E0
2.101294836E0,7.197927684E-2,-5.794925615E-2,9.754600525E0,9.755038213E0
2.103296399E0,7.173028588E-2,-6.358999759E-2,9.750970840E0,9.751442009E0
2.105294836E0,7.594407350E-2,-6.335058063E-2,9.754762650E0,9.755263971E0
2.107294836E0,6.476794183E-2,-6.263231486E-2,9.758238792E0,9.758654724E0
2.109294836E0,6.274724007E-2,-5.791094899E-2,9.761064529E0,9.761437990E0
2.111294836E0,6.010403857E-2,-5.713523179E-2,9.760777473E0,9.761129741E0
2.113294836E0,6.050626189E-2,-5.994123593E-2,9.760585785E0,9.760957372E0
2.115294836E0,6.642472744E-2,-6.179913506E-2,9.765460014E0,9.765881459E0
2.117294836E0,7.197927684E-2,-6.388688087E-2,9.766303062E0,9.766777261E0
2.119347961E0,6.686526537E-2,-5.850471184E-2,9.768276215E0,9.768680257E0
2.121294836E0,6.106172130E-2,-5.340985209E-2,9.764578819E0,9.764915804E0
2.123294836E0,6.537128240E-2,-4.978981614E-2,9.762166023E0,9.762511864E0
2.125294836E0,7.024587691E-2,-5.212656036E-2,9.763323784E0,9.763715633E0
2.127294836E0,7.790732384E-2,-5.912720412E-2,9.761831284E0,9.762321219E0
2.129294836E0,7.834785432E-2,-5.493256450E-2,9.764148712E0,9.764617558E0
2.131294836E0,7.562804222E-2,-5.527732894E-2,9.765537262E0,9.765986545E0
2.133294836E0,7.729440928E-2,-5.255751312E-2,9.763104439E0,9.763551864E0
2.135294836E0,7.738059759E-2,-4.563348368E-2,9.753403664E0,9.753817365E0
2.137294836E0,6.929777563E-2,-3.861368448E-2,9.754839897E0,9.755162460E0
2.139443274E0,7.356902957E-2,-3.392105177E-2,9.749936104E0,9.750272666E0
2.141580774E0,8.371087164E-2,-3.114377521E-2,9.756352425E0,9.756761249E0
2.143340149E0,7.867346704E-2,-4.056735337E-2,9.753623009E0,9.754024658E0
2.145294836E0,7.289864868E-2,-5.372588709E-2,9.751526833E0,9.751947306E0
2.147294836E0,7.477571070E-2,-5.631162226E-2,9.756266594E0,9.756715649E0
2.149294836E0,7.705498487E-2,-5.508579314E-2,9.762673378E0,9.763132868E0
2.151294836E0,7.244853675E-2,-5.269159004E-2,9.766179085E0,9.766589943E0
2.153294836E0,7.093541324E-2,-4.107492417E-2,9.760010719E0,9.760354923E0
2.155294836E0,6.598419696E-2,-4.371812567E-2,9.755672455E0,9.755993554E0
2.157294836E0,5.952943116E-2,-3.806780651E-2,9.753164291E0,9.753420252E0
2.159471399E0,5.411853269E-2,-3.559699282E-2,9.752465248E0,9.752680369E0
2.161294836E0,5.385996401E-2,-4.535575956E-2,9.750616074E0,9.750870313E0
2.163294836E0,5.260540172E-2,-4.631343856E-2,9.753662109E0,9.753913922E0
2.165294836E0,6.220135838E-2,-4.369897023E-2,9.752004623E0,9.752300897E0
2.167294836E0,6.528509408E-2,-4.909071326E-2,9.756160736E0,9.756502670E0
2.169294836E0,6.992026418E-2,-5.138914660E-2,9.758708954E0,9.759094739E0
2.171294836E0,6.395391375E-2,-4.977066442E-2,9.757233620E0,9.757570145E0
2.173294836E0,6.612785161E-2,-5.231809616E-2,9.762251854E0,9.762616009E0
2.175294836E0,6.642472744E-2,-4.512591660E-2,9.755796432E0,9.756126927E0
2.177294836E0,6.847416610E-2,-3.718674183E-2,9.744668961E0,9.744980488E0
2.179294836E0,6.870400906E-2,-3.651636466E-2,9.735427856E0,9.735738762E0
2.181294836E0,6.261315942E-2,-4.274128750E-2,9.734019279E0,9.734314488E0
2.183294836E0,6.403053552E-2,-4.414907843E-2,9.732755661E0,9.733066413E0
2.185294836E0,6.317819655E-2,-4.839160666E-2,9.738213539E0,9.738538708E0
2.187294836E0,6.339845806E-2,-4.836287349E-2,9.745272636E0,9.745598857E0
2.189471399E0,7.013095915E-2,-4.539406672E-2,9.749649048E0,9.750006950E0
2.191294836E0,7.025545835E-2,-4.789361358E-2,9.757377625E0,9.757748087E0
2.193294836E0,6.093722209E-2,-5.330450833E-2,9.758296967E0,9.758632814E0
2.195294836E0,5.837063491E-2,-5.164771900E-2,9.756198883E0,9.756510199E0
2.197294836E0,5.711607635E-2,-5.207867548E-2,9.754724503E0,9.755030731E0
2.199294836E0,5.718311295E-2,-5.555505678E-2,9.752953529E0,9.753279388E0
2.201294836E0,5.939535424E-2,-5.644569919E-2,9.749438286E0,9.749782603E0
2.203296399E0,6.168421358E-2,-5.226063356E-2,9.750760078E0,9.751095232E0
2.205296399E0,6.087975949E-2,-4.968447611E-2,9.753413200E0,9.753729746E0
2.207296399E0,5.843767524E-2,-4.344039410E-2,9.752904892E0,9.753176706E0
2.209294836E0,6.299623847E-2,-3.924575448E-2,9.757396698E0,9.757678980E0
2.211294836E0,6.858909130E-2,-4.567179084E-2,9.756046295E0,9.756394298E0
2.213294836E0,7.560888678E-2,-4.819048941E-2,9.752589226E0,9.753001365E0
2.215294836E0,7.403828949E-2,-4.394796863E-2,9.744754791E0,9.745135147E0
2.217294836E0,7.036080211E-2,-3.848918527E-2,9.738165855E0,9.738496100E0
2.219294836E0,6.415502727E-2,-3.415089473E-2,9.734919548E0,9.735190843E0
2.221294836E0,6.815813482E-2,-3.036805429E-2,9.741806030E0,9.742091792E0
2.223294836E0,6.565858424E-2,-3.021482378E-2,9.753881454E0,9.754149241E0
2.225294836E0,6.794743985E-2,-3.572148830E-2,9.757338524E0,9.757640491E0
2.227294836E0,6.404968351E-2,-3.760812059E-2,9.752617836E0,9.752900665E0
2.229294836E0,6.730580330E-2,-4.122815281E-2,9.754274368E0,9.754593702E0
2.231294836E0,6.254612654E-2,-4.655285552E-2,9.751708031E0,9.752019724E0
2.233294836E0,6.104256958E-2,-4.916732758E-2,9.751823425E0,9.752138419E0
2.235294836E0,6.106172130E-2,-5.406107381E-2,9.748710632E0,9.749051755E0
2.237294836E0,5.879201367E-2,-5.222232640E-2,9.752186775E0,9.752503810E0
2.239471399E0,5.262455344E-2,-5.298847333E-2,9.753077507E0,9.753363419E0
2.241294836E0,5.289270356E-2,-5.409938097E-2,9.754656792E0,9.754950205E0
2.243294836E0,5.937620252E-2,-4.716577381E-2,9.756390572E0,9.756685253E0
2.245294836E0,6.651092321E-2,-4.192726314E-2,9.758622169E0,9.758938889E0
2.247294836E0,6.262274086E-2,-4.320097715E-2,9.763966560E0,9.764262948E0
2.249294836E0,6.208643690E-2,-4.299028218E-2,9.760432243E0,9.760724382E0
2.251294836E0,5.861963332E-2,-3.991613165E-2,9.752148628E0,9.752406494E0
2.253294836E0,6.723876297E-2,-3.452438861E-2,9.749514580E0,9.749807564E0
2.255294836E0,7.214207947E-2,-4.239652306E-2,9.743662834E0,9.744022135E0
2.257294836E0,7.299442589E-2,-4.756800085E-2,9.741259575E0,9.741649193E0
2.259296399E0,6.630022824E-2,-4.850652814E-2,9.747771263E0,9.748117418E0
2.261440149E0,6.573519856E-2,-4.820964485E-2,9.750855446E0,9.751196194E0
2.263294836E0,6.663542241E-2,-4.668693244E-2,9.749591827E0,9.749931320E0
2.265294836E0,6.870400906E-2,-4.299028218E-2,9.747675896E0,9.748012811E0
2.267294836E0,6.676950306E-2,-3.946602345E-2,9.750434875E0,9.750743356E0
2.269294836E0,6.394433975E-2,-4.410119727E-2,9.762510300E0,9.762819324E0
2.271294836E0,6.748775393E-2,-4.486734048E-2,9.768984795E0,9.769320938E0
2.273294836E0,7.195054740E-2,-4.647624120E-2,9.773676872E0,9.774052206E0
2.275294836E0,6.937438995E-2,-5.670427158E-2,9.769865036E0,9.770275892E0
2.277294836E0,6.415502727E-2,-5.462610722E-2,9.766369820E0,9.766733299E0
2.279294836E0,6.117664278E-2,-5.366842821E-2,9.759552002E0,9.759891299E0
2.281294836E0,7.455544174E-2,-5.258624628E-2,9.759091377E0,9.759517833E0
2.283296399E0,7.702626288E-2,-5.162856728E-2,9.759723663E0,9.760164166E0
2.285294836E0,7.591534406E-2,-4.825752974E-2,9.755558014E0,9.755972739E0
2.287294836E0,7.289864868E-2,-4.617936164E-2,9.750817299E0,9.751199144E0
2.289294836E0,6.788040698E-2,-4.179318622E-2,9.749898911E0,9.750224776E0
2.291294836E0,6.157886982E-2,-3.806780651E-2,9.751918793E0,9.752187511E0
2.293294836E0,6.550535560E-2,-4.037581757E-2,9.756870270E0,9.757173700E0
2.295296399E0,5.615839362E-2,-3.781880811E-2,9.755395889E0,9.755630835E0
2.297294836E0,4.741477221E-2,-4.352658987E-2,9.760767937E0,9.760980147E0
2.299296399E0,4.955997318E-2,-4.633259028E-2,9.768179893E0,9.768415497E0
2.301294836E0,5.521986634E-2,-4.637089744E-2,9.765555382E0,9.765821594E0
2.303294836E0,5.641696975E-2,-4.362235591E-2,9.761907578E0,9.762168065E0
2.305296399E0,5.498044938E-2,-4.118026793E-2,9.757071495E0,9.757313299E0
2.307294836E0,5.565082654E-2,-4.654328153E-2,9.752953529E0,9.753223356E0
2.309294836E0,5.976885185E-2,-5.237555876E-2,9.753125191E0,9.753448954E0
2.311294836E0,6.864655018E-2,-5.408980697E-2,9.749390602E0,9.749782314E0
2.313294836E0,6.603208184E-2,-5.132211000E-2,9.745903969E0,9.746262790E0
2.315296399E0,6.081272662E-2,-4.558560252E-2,9.750156403E0,9.750452611E0
2.317294836E0,5.353435129E-2,-3.620990738E-2,9.750329018E0,9.750543218E0
2.319471399E0,5.786306784E-2,-3.681324422E-2,9.749524117E0,9.749765323E0
2.321294836E0,6.909666210E-2,-4.198472202E-2,9.749994278E0,9.750329507E0
2.323294836E0,7.487147301E-2,-4.500141367E-2,9.745224953E0,9.745616463E0
2.325294836E0,6.762183458E-2,-4.730942473E-2,9.739612579E0,9.739962222E0
2.327294836E0,6.653007865E-2,-5.043146387E-2,9.742955208E0,9.743312874E0
2.329294836E0,6.503609568E-2,-4.475241899E-2,9.742600441E0,9.742920292E0
2.331294836E0,6.422206759E-2,-4.458003491E-2,9.745435715E0,9.745749285E0
2.333294836E0,6.128198653E-2,-3.899675608E-2,9.742419243E0,9.742690025E0
2.335294836E0,6.916369498E-2,-3.624821454E-2,9.744716644E0,9.745029504E0
2.337294836E0,6.156928837E-2,-3.294421360E-2,9.747800827E0,9.748050937E0
2.339294836E0,5.653189123E-2,-3.768473491E-2,9.750319481E0,9.750556188E0
2.341294836E0,6.507439911E-2,-3.555868566E-2,9.752158165E0,9.752440103E0
2.343296399E0,6.690356880E-2,-3.600879386E-2,9.756659508E0,9.756955338E0
2.345294836E0,5.852386355E-2,-3.927448764E-2,9.754457474E0,9.754712099E0
2.347294836E0,5.891651660E-2,-3.710054606E-2,9.751066208E0,9.751314773E0
2.349294836E0,5.578489974E-2,-3.540545702E-2,9.751736641E0,9.751960470E0
2.351294836E0,5.105395988E-2,-4.344039410E-2,9.754418373E0,9.754648706E0
2.353296399E0,5.526775494E-2,-4.557602480E-2,9.755021095E0,9.755284120E0
2.355296399E0,5.974970013E-2,-4.581544548E-2,9.751899719E0,9.752190380E0
2.357294836E0,6.506482512E-2,-5.334281549E-2,9.750348091E0,9.750711091E0
2.359296399E0,6.375280023E-2,-5.695326999E-2,9.757761002E0,9.758135470E0
2.361296399E0,6.821559370E-2,-5.299805105E-2,9.760173798E0,9.760556066E0
2.363294836E0,7.217081636E-2,-5.327577516E-2,9.759954453E0,9.760366686E0
2.365294836E0,6.797617674E-2,-5.921339616E-2,9.754342079E0,9.754758653E0
2.367294836E0,6.585970521E-2,-6.272808462E-2,9.753087044E0,9.753511121E0
2.369294836E0,6.743986905E-2,-5.340027437E-2,9.747101784E0,9.747481362E0
2.371294836E0,6.896258891E-2,-4.865017533E-2,9.744400978E0,9.744766447E0
2.373294836E0,7.241981477E-2,-4.769249633E-2,9.753575325E0,9.753960776E0
2.375294836E0,7.764875144E-2,-4.835329950E-2,9.761112213E0,9.761540811E0
2.377294836E0,7.359776646E-2,-4.910028726E-2,9.760787010E0,9.761187967E0
2.379296399E0,7.467994094E-2,-5.495171621E-2,9.771579742E0,9.772019620E0
2.381294836E0,7.581958175E-2,-6.256527454E-2,9.776694298E0,9.777188472E0
2.383294836E0,7.056191564E-2,-6.634811312E-2,9.776664734E0,9.777144490E0
2.385294836E0,6.462428719E-2,-5.545929074E-2,9.776109695E0,9.776480594E0
2.387294836E0,7.103117555E-2,-4.309562966E-2,9.776205063E0,9.776558090E0
2.389294836E0,7.715075463E-2,-5.203079060E-2,9.772153854E0,9.772596912E0
2.391294836E0,7.555142790E-2,-6.249824166E-2,9.771292686E0,9.771784628E0
2.393294836E0,7.292738557E-2,-7.429686934E-2,9.775640488E0,9.776194831E0
2.395296399E0,6.695145369E-2,-6.894343346E-2,9.771091461E0,9.771564053E0
2.397296399E0,6.406883895E-2,-5.854301900E-2,9.765814781E0,9.766200410E0
2.399471399E0,6.415502727E-2,-5.580405518E-2,9.758133888E0,9.758504339E0
2.401296399E0,7.167281955E-2,-4.610274732E-2,9.753806114E0,9.754178395E0
2.403296399E0,7.002561539E-2,-4.201345146E-2,9.753250122E0,9.753591988E0
2.405296399E0,6.312073767E-2,-4.458961263E-2,9.752024651E0,9.752330862E0
2.407296399E0,7.134721428E-2,-4.902367294E-2,9.744487762E0,9.744872267E0
2.409296399E0,7.270711660E-2,-5.244259164E-2,9.750424385E0,9.750836489E0
2.411296399E0,6.326438487E-2,-5.141787603E-2,9.760767937E0,9.761108385E0
2.413296399E0,6.373365223E-2,-5.423345417E-2,9.763947487E0,9.764306108E0
2.415296399E0,6.720045209E-2,-4.924394190E-2,9.760652542E0,9.761008089E0
2.417296399E0,7.012137771E-2,-4.719450325E-2,9.754446983E0,9.754813185E0
2.419296399E0,6.808152050E-2,-5.040273443E-2,9.752953529E0,9.753321387E0
2.421296399E0,7.177817076E-2,-4.352658987E-2,9.749582291E0,9.749943667E0
2.423296399E0,7.285077125E-2,-4.755842313E-2,9.747685432E0,9.748073673E0
2.425296399E0,7.041826099E-2,-4.591121152E-2,9.750299454E0,9.750661824E0
2.427296399E0,6.855078042E-2,-4.125688598E-2,9.751152039E0,9.751480268E0
2.429294836E0,6.812940538E-2,-4.611232504E-2,9.753355026E0,9.753701976E0
2.431296399E0,6.834009290E-2,-5.053680763E-2,9.762722015E0,9.763092004E0
2.433296399E0,6.698976457E-2,-5.394615233E-2,9.784326553E0,9.784704590E0
2.435296399E0,6.680780649E-2,-5.526775494E-2,9.791289330E0,9.791673225E0
2.437296399E0,6.234501302E-2,-6.085103378E-2,9.769568443E0,9.769956874E0
2.439296399E0,5.962519720E-2,-5.848555639E-2,9.747005463E0,9.747363295E0
2.441296399E0,5.093903467E-2,-5.488467962E-2,9.737668037E0,9.737955942E0
2.443294836E0,5.253836140E-2,-5.785349011E-2,9.737458229E0,9.737771823E0
2.445294836E0,6.266104430E-2,-6.032430753E-2,9.733530998E0,9.733919618E0
2.447294836E0,6.430825591E-2,-4.782657325E-2,9.726482391E0,9.726812563E0
2.449294836E0,5.657977238E-2,-3.331771120E-2,9.720688820E0,9.720910578E0
2.451294836E0,4.578671232E-2,-2.839523181E-2,9.734594345E0,9.734743437E0
2.453294836E0,5.612966418E-2,-3.561614454E-2,9.758019447E0,9.758245876E0
2.455296399E0,6.397306919E-2,-3.569275886E-2,9.767002106E0,9.767276829E0
2.457296399E0,6.106172130E-2,-3.431369737E-2,9.754878044E0,9.755129503E0
2.459296399E0,6.529466808E-2,-3.875733539E-2,9.747733116E0,9.748028848E0
2.461296399E0,7.299442589E-2,-4.639005288E-2,9.752675056E0,9.753058545E0
2.463294836E0,7.208462805E-2,-4.300943762E-2,9.760097504E0,9.760458457E0
2.465294836E0,6.885723770E-2,-4.203260317E-2,9.763899803E0,9.764233069E0
2.467294836E0,6.733452529E-2,-4.160165042E-2,9.757569313E0,9.757890322E0
2.469294836E0,6.639600545E-2,-3.241749108E-2,9.748173714E0,9.748453727E0
2.471294836E0,7.000645250E-2,-2.272576280E-2,9.736384392E0,9.736662590E0
2.473294836E0,6.369534135E-2,-2.730347589E-2,9.736069679E0,9.736316314E0
2.475294836E0,6.048711017E-2,-2.935291268E-2,9.735810280E0,9.736042424E0
2.477294836E0,6.042964756E-2,-2.971683070E-2,9.746977806E0,9.747210431E0
2.479663586E0,6.524679065E-2,-3.277183324E-2,9.750281334E0,9.750554714E0
2.481294836E0,6.945100427E-2,-2.771527879E-2,9.750041962E0,9.750328704E0
2.483294836E0,6.938396394E-2,-2.939121984E-2,9.746986389E0,9.747277653E0
2.485294836E0,5.994123593E-2,-2.993709780E-2,9.747426987E0,9.747657259E0
2.487294836E0,5.798756331E-2,-3.311659768E-2,9.741221428E0,9.741450312E0
2.489294836E0,6.136817858E-2,-4.131434485E-2,9.732467651E0,9.732748816E0
2.491294836E0,6.950846314E-2,-4.222413898E-2,9.737055779E0,9.737395419E0
2.493294836E0,6.639600545E-2,-3.979163244E-2,9.744630814E0,9.744938250E0
2.495294836E0,6.182786450E-2,-5.065172911E-2,9.745157242E0,9.745485003E0
2.497296399E0,6.860824674E-2,-6.207686290E-2,9.749571800E0,9.750010816E0
2.499294836E0,6.348465383E-2,-6.809109449E-2,9.755854607E0,9.756298776E0
2.501294836E0,6.295792758E-2,-6.257485598E-2,9.765852928E0,9.766256331E0
2.503294836E0,6.346549839E-2,-5.904101580E-2,9.758401871E0,9.758786850E0
2.505294836E0,6.348465383E-2,-5.846640468E-2,9.750251770E0,9.750633733E0
2.507294836E0,5.664681271E-2,-5.662765726E-2,9.750175476E0,9.750504467E0
2.509294836E0,5.788221955E-2,-5.657019839E-2,9.739554405E0,9.739890685E0
2.511294836E0,5.641696975E-2,-5.566997826E-2,9.744668961E0,9.744991286E0
2.513294836E0,5.999869481E-2,-5.019204319E-2,9.749658585E0,9.749972390E0
2.515294836E0,6.130113825E-2,-5.070919171E-2,9.747896194E0,9.748220836E0
2.517294836E0,6.185659394E-2,-4.538448900E-2,9.746421814E0,9.746723766E0
2.519294836E0,6.909666210E-2,-5.023992807E-2,9.739995003E0,9.740369657E0
2.521294836E0,6.771759689E-2,-4.552813992E-2,9.733090401E0,9.733432449E0
2.523296399E0,6.186617166E-2,-4.271255806E-2,9.723762512E0,9.724053125E0
2.525296399E0,6.490202248E-2,-5.446329713E-2,9.726233482E0,9.726602504E0
2.527296399E0,6.840712577E-2,-6.009446457E-2,9.732879639E0,9.733305551E0
2.529294836E0,6.585012376E-2,-5.384080857E-2,9.753403664E0,9.753774556E0
2.531294836E0,6.384856999E-2,-5.209782720E-2,9.767683029E0,9.768030640E0
2.533294836E0,6.215347722E-2,-5.631162226E-2,9.771857262E0,9.772217169E0
2.535294836E0,6.178955734E-2,-4.558560252E-2,9.762367249E0,9.762669220E0
2.537294836E0,5.535394326E-2,-4.652412981E-2,9.751008987E0,9.751277087E0
2.539471399E0,5.206909776E-2,-4.304774478E-2,9.746852875E0,9.747087014E0
2.541294836E0,5.148491263E-2,-4.005978256E-2,9.744995117E0,9.745213457E0
2.543360461E0,5.342900380E-2,-4.752011597E-2,9.746613503E0,9.746875786E0
2.545294836E0,6.176082790E-2,-5.527732894E-2,9.751047134E0,9.751399397E0
2.547294836E0,5.933789536E-2,-5.487510189E-2,9.752004623E0,9.752339537E0
2.549326086E0,5.831317604E-2,-5.647442862E-2,9.753077507E0,9.753415332E0
2.551294836E0,6.367618591E-2,-5.816952512E-2,9.756649017E0,9.757030204E0
2.553294836E0,6.260358542E-2,-5.416642129E-2,9.758880615E0,9.759231736E0
2.555294836E0,7.160577923E-2,-4.763503745E-2,9.755366325E0,9.755745416E0
2.557294836E0,7.299442589E-2,-5.234682560E-2,9.753383636E0,9.753797247E0
2.559471399E0,7.109821588E-2,-5.141787603E-2,9.750875473E0,9.751270237E0
2.561294836E0,7.211335748E-2,-5.057511479E-2,9.755165100E0,9.755562737E0
2.563294836E0,7.381802052E-2,-4.697423428E-2,9.755328178E0,9.755720555E0
2.565296399E0,6.843586266E-2,-4.353616387E-2,9.754648209E0,9.754985420E0
2.567296399E0,6.481582671E-2,-4.827668518E-2,9.755748749E0,9.756083506E0
2.569296399E0,5.254793912E-2,-5.175306275E-2,9.758181572E0,9.758460291E0
2.571294836E0,5.101565272E-2,-6.346549839E-2,9.758976936E0,9.759316642E0
2.573294836E0,5.585193634E-2,-6.656838208E-2,9.760403633E0,9.760790433E0
2.575294836E0,5.668511987E-2,-6.112875789E-2,9.764847755E0,9.765203614E0
2.577294836E0,5.459737405E-2,-5.715438351E-2,9.769817352E0,9.770137082E0
2.579294836E0,5.295016617E-2,-5.298847333E-2,9.767845154E0,9.768132393E0
2.581296399E0,4.398627579E-2,-5.032612011E-2,9.764789581E0,9.765018335E0
2.583296399E0,4.882255942E-2,-4.606444016E-2,9.757636070E0,9.757866942E0
2.585296399E0,5.775772035E-2,-4.294240102E-2,9.752741814E0,9.753007377E0
2.587296399E0,6.583096832E-2,-4.599740356E-2,9.747561455E0,9.747892274E0
2.589296399E0,6.721960753E-2,-4.530787095E-2,9.748279572E0,9.748616614E0
2.591296399E0,6.453809887E-2,-4.739561677E-2,9.746364594E0,9.746693506E0
2.593296399E0,5.985504016E-2,-4.844906554E-2,9.746087074E0,9.746391291E0
2.595294836E0,6.020938605E-2,-5.414726585E-2,9.753154755E0,9.753490901E0
2.597294836E0,6.432741135E-2,-4.974193498E-2,9.760652542E0,9.760991257E0
2.599294836E0,7.286992669E-2,-4.146757349E-2,9.760614395E0,9.760974488E0
2.601296399E0,7.426813245E-2,-3.754108399E-2,9.760700226E0,9.761054963E0
2.603296399E0,6.921158731E-2,-3.973417357E-2,9.757166862E0,9.757493235E0
2.605296399E0,7.091625035E-2,-4.639005288E-2,9.757826805E0,9.758194767E0
2.607296399E0,6.017107889E-2,-3.884352744E-2,9.760585785E0,9.760848541E0
2.609296399E0,6.191405654E-2,-3.717716038E-2,9.762080193E0,9.762347319E0
2.611296399E0,6.804320961E-2,-3.836468980E-2,9.757865906E0,9.758178558E0
2.613324524E0,6.710468233E-2,-4.227202758E-2,9.762654305E0,9.762976443E0
2.615294836E0,6.380068511E-2,-4.967489466E-2,9.763822556E0,9.764157363E0
2.617294836E0,6.108087674E-2,-4.828625917E-2,9.768572807E0,9.768883105E0
2.619294836E0,6.884766370E-2,-4.912902042E-2,9.773792267E0,9.774158221E0
2.621294836E0,6.973830611E-2,-4.589205980E-2,9.770641327E0,9.770997976E0
2.623294836E0,6.842628121E-2,-3.883394971E-2,9.759493828E0,9.759810962E0
2.625294836E0,7.003518939E-2,-3.848918527E-2,9.746747017E0,9.747074626E0
2.627294836E0,6.597462296E-2,-3.804865107E-2,9.742159843E0,9.742457532E0
2.629294836E0,6.650134176E-2,-3.783796355E-2,9.749668121E0,9.749968339E0
2.631294836E0,4.654328153E-2,-2.883576602E-2,9.763486862E0,9.763640381E0
2.633294836E0,7.495766133E-2,-6.249824166E-2,9.755337715E0,9.755825881E0
2.635294836E0,5.815037340E-2,-5.435795709E-2,9.754993439E0,9.755318203E0
2.637294836E0,4.729985073E-2,-5.612966418E-2,9.739229202E0,9.739505802E0
2.639471399E0,5.911763012E-2,-5.629247054E-2,9.724682808E0,9.725025422E0
2.641579211E0,4.513549060E-2,-3.875733539E-2,9.735120773E0,9.735302554E0
2.643571399E0,5.085284263E-2,-3.741658479E-2,9.748212814E0,9.748417261E0
2.645294836E0,5.535394326E-2,-4.897578806E-2,9.760116577E0,9.760396421E0
2.647294836E0,6.189490110E-2,-4.854483530E-2,9.767882347E0,9.768199073E0
2.649294836E0,6.764098257E-2,-5.307466537E-2,9.767366409E0,9.767744816E0
2.651294836E0,6.068822369E-2,-4.799895361E-2,9.758401871E0,9.758708625E0
2.653294836E0,5.772899091E-2,-4.409161583E-2,9.749649048E0,9.749919654E0
2.655294836E0,5.461652577E-2,-4.722323641E-2,9.747149467E0,9.747416875E0
2.657294836E0,5.630204827E-2,-4.425442591E-2,9.744467735E0,9.744730875E0
2.659294836E0,6.044880301E-2,-4.054819793E-2,9.751727104E0,9.751998756E0
2.661296399E0,6.048711017E-2,-4.033751041E-2,9.766858101E0,9.767128696E0
2.663296399E0,6.391561031E-2,-5.027823523E-2,9.770506859E0,9.770845275E0
2.665296399E0,6.517975032E-2,-5.317043141E-2,9.767280579E0,9.767642776E0
2.667294836E0,6.722918898E-2,-4.691677541E-2,9.765527725E0,9.765871835E0
2.669294836E0,6.732495129E-2,-4.032793269E-2,9.766676903E0,9.766992204E0
2.671294836E0,7.662402838E-2,-5.263412744E-2,9.772786140E0,9.773228256E0
2.673294836E0,8.220730722E-2,-5.237555876E-2,9.761668205E0,9.762154854E0
2.675294836E0,7.778282464E-2,-4.593994096E-2,9.749534607E0,9.749953113E0
2.677294836E0,7.569508255E-2,-5.292143300E-2,9.739707947E0,9.740145857E0
2.679294836E0,7.976522297E-2,-5.124549568E-2,9.734086990E0,9.734548686E0
2.681294836E0,7.431601733E-2,-5.535394326E-2,9.745042801E0,9.745483370E0
2.683294836E0,7.397124916E-2,-5.452075973E-2,9.757904053E0,9.758336731E0
2.685294836E0,7.617391646E-2,-5.203079060E-2,9.764186859E0,9.764622609E0
2.687294836E0,7.115567476E-2,-5.956773832E-2,9.763296127E0,9.763737129E0
2.689294836E0,6.489244103E-2,-5.660850555E-2,9.754543304E0,9.754923405E0
2.691294836E0,5.827486888E-2,-5.495171621E-2,9.754676819E0,9.755005663E0
2.693294836E0,5.097734183E-2,-5.355350673E-2,9.763286591E0,9.763566547E0
2.695294836E0,5.815037340E-2,-6.491159648E-2,9.751784325E0,9.752173732E0
2.697438586E0,6.218220666E-2,-5.519114062E-2,9.742351532E0,9.742706301E0
2.699294836E0,6.580223888E-2,-4.647624120E-2,9.744908333E0,9.745241320E0
2.701294836E0,7.202716172E-2,-4.292324930E-2,9.756793022E0,9.757153294E0
2.703294836E0,7.852023840E-2,-5.311297253E-2,9.759350777E0,9.759811166E0
2.705294836E0,7.806055248E-2,-5.131253228E-2,9.760116577E0,9.760563612E0
2.707294836E0,7.600153983E-2,-4.211879894E-2,9.759809494E0,9.760196288E0
2.709294836E0,7.889373600E-2,-4.251144454E-2,9.757799149E0,9.758210680E0
2.711294836E0,7.482359558E-2,-3.507984057E-2,9.757320404E0,9.757670349E0
2.713294836E0,7.036080211E-2,-3.380613029E-2,9.750903130E0,9.751215583E0
2.715294836E0,6.234501302E-2,-3.844130412E-2,9.745320320E0,9.745595558E0
2.717294836E0,5.999869481E-2,-3.978205472E-2,9.744142532E0,9.744408455E0
2.719469836E0,5.557421222E-2,-4.363192990E-2,9.747714996E0,9.747971065E0
2.721294836E0,5.271074176E-2,-4.092169553E-2,9.748117447E0,9.748345848E0
2.723294836E0,5.501875654E-2,-3.971501812E-2,9.755989075E0,9.756225047E0
2.725294836E0,5.448245257E-2,-3.958094493E-2,9.758143425E0,9.758375792E0
2.727294836E0,6.080314517E-2,-4.766377062E-2,9.755414009E0,9.755719930E0
2.729294836E0,6.471048295E-2,-4.821922258E-2,9.765374184E0,9.765707629E0
2.731294836E0,6.480625272E-2,-4.047158360E-2,9.767165184E0,9.767464028E0
2.733294836E0,5.251920596E-2,-3.122038953E-2,9.763362885E0,9.763554055E0
2.735294836E0,5.209782720E-2,-3.253241256E-2,9.757913589E0,9.758106894E0
2.737294836E0,4.607401788E-2,-3.504153341E-2,9.761974335E0,9.762145954E0
2.739294836E0,4.462791979E-2,-3.726335615E-2,9.765288353E0,9.765461424E0
2.741294836E0,4.463749751E-2,-3.720589355E-2,9.759637833E0,9.759810829E0
2.743294836E0,3.887225688E-2,-2.951571904E-2,9.743041039E0,9.743163291E0
2.745294836E0,3.790500388E-2,-2.653733268E-2,9.728493690E0,9.728603728E0
2.747294836E0,3.777092695E-2,-2.889322676E-2,9.726569176E0,9.726685427E0
2.749294836E0,4.913859442E-2,-3.325067088E-2,9.738731384E0,9.738912115E0
2.751294836E0,5.877286196E-2,-3.534799442E-2,9.749649048E0,9.749890270E0
2.753294836E0,6.279512495E-2,-3.755065799E-2,9.759934425E0,9.760208669E0
2.755294836E0,6.177997962E-2,-3.675578162E-2,9.760154724E0,9.760419458E0
2.757294836E0,6.400179863E-2,-4.419696331E-2,9.755050659E0,9.755360730E0
2.759294836E0,6.463386863E-2,-4.151545838E-2,9.741977692E0,9.742280555E0
2.761294836E0,6.557239592E-2,-3.672705591E-2,9.728330612E0,9.728620926E0
2.763294836E0,6.972873211E-2,-3.544376418E-2,9.723897934E0,9.724212533E0
2.765294836E0,6.973830611E-2,-2.670971490E-2,9.726559639E0,9.726846316E0
2.767294836E0,6.966169178E-2,-3.312617540E-2,9.735120773E0,9.735426368E0
2.769294836E0,6.288131326E-2,-3.905421868E-2,9.743931770E0,9.744212931E0
2.771294836E0,6.792829186E-2,-4.056735337E-2,9.745521545E0,9.745842711E0
2.773294836E0,6.813897938E-2,-4.711788893E-2,9.750788689E0,9.751140603E0
2.775294836E0,7.199843228E-2,-5.400361121E-2,9.749419212E0,9.749834621E0
2.777296399E0,7.322426885E-2,-5.633077770E-2,9.749907494E0,9.750345178E0
2.779294836E0,8.083783090E-2,-5.635950714E-2,9.749850273E0,9.750348276E0
2.781294836E0,8.090486377E-2,-5.904101580E-2,9.746115685E0,9.746630309E0
2.783294836E0,7.977480441E-2,-5.692454055E-2,9.747723579E0,9.748216216E0
2.785294836E0,7.334876060E-2,-5.291185901E-2,9.745244026E0,9.745663694E0
2.787294836E0,7.362648845E-2,-5.449203029E-2,9.746507645E0,9.746938058E0
2.789294836E0,7.513005286E-2,-4.854483530E-2,9.750548363E0,9.750958645E0
2.791294836E0,7.149086148E-2,-4.609316960E-2,9.759829521E0,9.760200193E0
2.793296399E0,6.776548922E-2,-5.558378622E-2,9.773725510E0,9.774118480E0
2.795294836E0,7.289864868E-2,-5.586151406E-2,9.774998665E0,9.775430099E0
2.797296399E0,7.340622693E-2,-5.554547906E-2,9.765240669E0,9.765674534E0
2.799471399E0,5.780560523E-2,-5.904101580E-2,9.752981186E0,9.753331192E0
2.801294836E0,5.131253228E-2,-5.491340905E-2,9.739056587E0,9.739346573E0
2.803294836E0,5.171475559E-2,-4.711788893E-2,9.731692314E0,9.731943784E0
2.805294836E0,5.064215511E-2,-4.665820301E-2,9.748806953E0,9.749050140E0
2.807294836E0,5.508579314E-2,-5.559336394E-2,9.762884140E0,9.763197826E0
2.809294836E0,5.640739202E-2,-5.419514701E-2,9.769923210E0,9.770236355E0
2.811294836E0,5.337154493E-2,-4.615063220E-2,9.764186859E0,9.764441788E0
2.813296399E0,4.805641621E-2,-4.245398194E-2,9.748547554E0,9.748758443E0
2.815294836E0,4.495352879E-2,-4.983770475E-2,9.731988907E0,9.732220338E0
2.817296399E0,4.722323641E-2,-3.207272664E-2,9.734096527E0,9.734263911E0
2.819296399E0,5.404191837E-2,-4.102703929E-2,9.738290787E0,9.738527157E0
2.821294836E0,6.558196992E-2,-3.654509410E-2,9.738625526E0,9.738914913E0
2.823294836E0,6.251739711E-2,-2.170104347E-2,9.733004570E0,9.733229542E0
2.825294836E0,6.189490110E-2,-2.936249040E-2,9.727890968E0,9.728132186E0
2.827294836E0,5.703946203E-2,-1.313937828E-2,9.735188484E0,9.735364450E0
2.829294836E0,5.318958685E-2,-2.783977613E-2,9.748997688E0,9.749182536E0
2.831294836E0,6.725791097E-2,-4.424484819E-2,9.758727074E0,9.759059142E0
2.833294836E0,5.484637246E-2,-3.925533220E-2,9.763630867E0,9.763863826E0
2.835294836E0,5.742253363E-2,-3.621948138E-2,9.760863304E0,9.761099407E0
2.837294836E0,5.854301900E-2,-4.393838719E-2,9.752578735E0,9.752853421E0
2.839294836E0,5.881116912E-2,-3.413173929E-2,9.737122536E0,9.737359961E0
2.841294836E0,5.752787739E-2,-3.331771120E-2,9.733713150E0,9.733940169E0
2.843294836E0,5.533478782E-2,-4.204218462E-2,9.732018471E0,9.732266591E0
2.845294836E0,6.085103378E-2,-3.642059863E-2,9.745291710E0,9.745549744E0
2.847294836E0,6.714299321E-2,-3.772304207E-2,9.754945755E0,9.755249761E0
2.849294836E0,7.502470165E-2,-4.288494214E-2,9.773869514E0,9.774251537E0
2.851294836E0,6.468175352E-2,-4.666777700E-2,9.781348228E0,9.781673414E0
2.853294836E0,6.200024858E-2,-4.923436418E-2,9.768467903E0,9.768788729E0
2.855294836E0,5.194459856E-2,-4.767334461E-2,9.759159088E0,9.759413768E0
2.857294836E0,5.399403721E-2,-4.854483530E-2,9.753393173E0,9.753663432E0
2.859294836E0,5.194459856E-2,-4.307647794E-2,9.760087967E0,9.760321252E0
2.861294836E0,4.764461517E-2,-4.706043005E-2,9.764636993E0,9.764866630E0
2.863294836E0,5.258624628E-2,-5.709692463E-2,9.759283066E0,9.759591760E0
2.865294836E0,6.017107889E-2,-5.696284771E-2,9.758382797E0,9.758734556E0
2.867294836E0,6.167463586E-2,-6.554366648E-2,9.755146027E0,9.755561170E0
2.869294836E0,5.873455480E-2,-5.378334969E-2,9.761159897E0,9.761484771E0
2.871294836E0,5.768110603E-2,-5.657977238E-2,9.767691612E0,9.768025789E0
2.873294836E0,5.763322487E-2,-5.968265980E-2,9.767059326E0,9.767411709E0
2.875294836E0,5.893566832E-2,-5.178179592E-2,9.758727074E0,9.759042415E0
2.877294836E0,5.783433467E-2,-5.531563610E-2,9.750251770E0,9.750580199E0
2.879471399E0,6.331226975E-2,-5.835148320E-2,9.741537094E0,9.741917588E0
2.881294836E0,6.030515209E-2,-6.086060777E-2,9.738262177E0,9.738639070E0
2.883294836E0,6.003700197E-2,-5.427176133E-2,9.745252609E0,9.745588658E0
2.885294836E0,6.697060913E-2,-5.607220531E-2,9.752329826E0,9.752720964E0
2.887294836E0,6.127241254E-2,-6.217262894E-2,9.760719299E0,9.761109619E0
2.889471399E0,5.351519957E-2,-6.494990736E-2,9.768209457E0,9.768571972E0
2.891294836E0,6.497863680E-2,-5.080495775E-2,9.767021179E0,9.767369456E0
2.893294836E0,5.732676759E-2,-5.562209338E-2,9.765872002E0,9.766198653E0
2.895294836E0,6.842628121E-2,-5.886863172E-2,9.760633469E0,9.761050834E0
2.897294836E0,5.398445949E-2,-4.436934739E-2,9.749046326E0,9.749296755E0
2.899294836E0,5.310339481E-2,-5.108268559E-2,9.730792046E0,9.731071023E0
2.901294836E0,5.714480579E-2,-5.375461653E-2,9.727976799E0,9.728293154E0
2.903294836E0,5.743211135E-2,-5.216486752E-2,9.734690666E0,9.734999845E0
2.905294836E0,6.681738049E-2,-5.232767016E-2,9.740885735E0,9.741255445E0
2.907294836E0,6.907750666E-2,-4.989516363E-2,9.743529320E0,9.743901931E0
2.909294836E0,7.807970792E-2,-4.599740356E-2,9.754830360E0,9.755251281E0
2.911294836E0,7.422025502E-2,-3.673662990E-2,9.764589310E0,9.764940482E0
2.913294836E0,6.597462296E-2,-3.742616251E-2,9.768591881E0,9.768886359E0
2.915438586E0,6.275681406E-2,-3.419877589E-2,9.770048141E0,9.770309548E0
2.917294836E0,6.472963840E-2,-4.050031677E-2,9.757013321E0,9.757312086E0
2.919294836E0,6.634811312E-2,-3.233129904E-2,9.756285667E0,9.756564837E0
2.921294836E0,6.291004270E-2,-3.220680356E-2,9.760556221E0,9.760812092E0
2.923294836E0,6.312073767E-2,-3.671747446E-2,9.767721176E0,9.767994133E0
2.925294836E0,6.397306919E-2,-4.315309227E-2,9.770717621E0,9.771022340E0
2.927294836E0,6.897216290E-2,-4.732858017E-2,9.777029037E0,9.777386867E0
2.929294836E0,6.790913641E-2,-5.116888136E-2,9.781894684E0,9.782264232E0
2.931294836E0,6.191405654E-2,-4.669651017E-2,9.772853851E0,9.773161531E0
2.933294836E0,5.735549703E-2,-4.582501948E-2,9.759714127E0,9.759990237E0
2.935294836E0,5.123591796E-2,-5.136041716E-2,9.746680260E0,9.746950246E0
2.937294836E0,4.876509681E-2,-5.008669943E-2,9.742935181E0,9.743185960E0
2.939294836E0,4.509718344E-2,-5.810248479E-2,9.748452187E0,9.748729645E0
2.941294836E0,5.115929991E-2,-5.614881963E-2,9.751113892E0,9.751409749E0
2.943294836E0,4.888001829E-2,-5.861005932E-2,9.749390602E0,9.749689303E0
2.945294836E0,5.024950579E-2,-5.817909911E-2,9.752329826E0,9.752632817E0
2.947294836E0,5.411853269E-2,-5.510494485E-2,9.754485130E0,9.754790901E0
2.949294836E0,6.023811176E-2,-5.160941184E-2,9.764454842E0,9.764777034E0
2.951294836E0,5.897397548E-2,-5.433880165E-2,9.772777557E0,9.773106559E0
2.953294836E0,6.161717698E-2,-5.520071462E-2,9.769761086E0,9.770111333E0
2.955294836E0,7.229530811E-2,-5.607220531E-2,9.766016006E0,9.766444560E0
2.957296399E0,7.124187052E-2,-6.717172265E-2,9.759695053E0,9.760186216E0
2.959471399E0,6.457640976E-2,-6.075526029E-2,9.747120857E0,9.747524112E0
2.961294836E0,6.701849401E-2,-5.526775494E-2,9.743864059E0,9.744251270E0
2.963294836E0,6.598419696E-2,-5.185841024E-2,9.741374969E0,9.741736473E0
2.965294836E0,6.380068511E-2,-4.932055622E-2,9.742868423E0,9.743202151E0
2.967294836E0,6.770802289E-2,-4.118984565E-2,9.752627373E0,9.752949382E0
2.969294836E0,7.160577923E-2,-4.544194788E-2,9.760154724E0,9.760523172E0
2.971294836E0,7.163451612E-2,-4.479072616E-2,9.753632545E0,9.753998439E0
2.973294836E0,7.984183729E-2,-5.027823523E-2,9.740235329E0,9.740692320E0
2.975294836E0,8.162312210E-2,-4.635174572E-2,9.736097336E0,9.736549807E0
2.977294836E0,7.812758535E-2,-4.559517652E-2,9.730734825E0,9.731155280E0
2.979294836E0,7.554185390E-2,-4.454172775E-2,9.730093002E0,9.730488188E0
2.981294836E0,7.913315296E-2,-4.757757485E-2,9.734230042E0,9.734667954E0
2.983294836E0,7.821378112E-2,-5.112099275E-2,9.744008064E0,9.744456060E0
2.985294836E0,7.483316958E-2,-4.968447611E-2,9.765651703E0,9.766064803E0
2.987294836E0,7.332003117E-2,-5.546886474E-2,9.774596214E0,9.775028582E0
2.989294836E0,6.775590777E-2,-4.398627579E-2,9.768103600E0,9.768437623E0
2.991294836E0,6.673119217E-2,-3.723462299E-2,9.759388924E0,9.759688091E0
2.993294836E0,6.640557945E-2,-4.709873721E-2,9.746631622E0,9.746971631E0
2.995294836E0,6.310158223E-2,-4.720408097E-2,9.742226601E0,9.742545313E0
2.997294836E0,6.202897802E-2,-5.113057420E-2,9.741757393E0,9.742089049E0
2.999294836E0,5.413768813E-2,-4.912902042E-2,9.743692398E0,9.743966651E0
3.001294836E0,5.971139297E-2,-5.410895869E-2,9.746344566E0,9.746677672E0
3.003294836E0,6.839755177E-2,-6.297708303E-2,9.749926567E0,9.750369860E0
3.005294836E0,6.052541733E-2,-5.835148320E-2,9.757109642E0,9.757471844E0
3.007294836E0,5.475060269E-2,-6.187574938E-2,9.760815620E0,9.761165290E0
3.009294836E0,5.641696975E-2,-6.586927921E-2,9.756525040E0,9.756910499E0
3.011294836E0,5.121676251E-2,-5.793010443E-2,9.755481720E0,9.755788161E0
3.013294836E0,6.345592439E-2,-4.378515854E-2,9.752857208E0,9.753161924E0
3.015294836E0,6.255570054E-2,-4.540364072E-2,9.752646446E0,9.752952753E0
3.017294836E0,6.045838073E-2,-6.018065289E-2,9.756266594E0,9.756639523E0
3.019294836E0,6.741113961E-2,-6.918285042E-2,9.766025543E0,9.766503235E0
3.021294836E0,7.029376179E-2,-6.407841295E-2,9.757051468E0,9.757515083E0
3.023294836E0,7.421068102E-2,-6.440402567E-2,9.752465248E0,9.752960244E0
3.025294836E0,7.362648845E-2,-6.354211271E-2,9.753662109E0,9.754146964E0
3.027294836E0,6.465302408E-2,-5.471229553E-2,9.756659508E0,9.757027119E0
3.029294836E0,6.463386863E-2,-4.075888917E-2,9.746555328E0,9.746854856E0
3.031294836E0,6.238332018E-2,-4.356489703E-2,9.740397453E0,9.740694643E0
3.033294836E0,6.284300983E-2,-4.602613300E-2,9.743413925E0,9.743725292E0
3.035294836E0,6.329311430E-2,-4.243483022E-2,9.752741814E0,9.753039507E0
3.037294836E0,6.570647657E-2,-4.319139943E-2,9.753220558E0,9.753537517E0
3.039471399E0,6.545747072E-2,-4.023216665E-2,9.752915382E0,9.753218021E0
3.041294836E0,5.774814636E-2,-4.061523825E-2,9.754744530E0,9.755000015E0
3.043294836E0,5.621585622E-2,-4.405330867E-2,9.756266594E0,9.756528008E0
3.045294836E0,5.717353895E-2,-5.212656036E-2,9.752703667E0,9.753010551E0
3.047294836E0,5.349604413E-2,-5.634992942E-2,9.750223160E0,9.750532745E0
3.049294836E0,4.921520874E-2,-5.044104159E-2,9.751430511E0,9.751685160E0
3.051294836E0,4.969405010E-2,-4.702212289E-2,9.757587433E0,9.757827273E0
3.053294836E0,4.782657325E-2,-4.571967572E-2,9.773150444E0,9.773374406E0
3.055294836E0,5.087199807E-2,-4.919605702E-2,9.781060219E0,9.781316231E0
3.057294836E0,6.062118709E-2,-5.593812838E-2,9.782335281E0,9.782683045E0
3.059294836E0,5.677130818E-2,-6.094679981E-2,9.780524254E0,9.780878906E0
3.061294836E0,6.394433975E-2,-6.203855574E-2,9.771167755E0,9.771573924E0
3.063294836E0,6.924030930E-2,-5.957731605E-2,9.758794785E0,9.759222270E0
3.065294836E0,6.609912217E-2,-6.294835359E-2,9.750923157E0,9.751350368E0
3.067294836E0,6.315904111E-2,-6.812940538E-2,9.736031532E0,9.736474756E0
3.069294836E0,5.952943116E-2,-7.920019329E-2,9.731624603E0,9.732128947E0
3.071294836E0,5.963477865E-2,-7.642292231E-2,9.726472855E0,9.726955894E0
3.073294836E0,5.812164024E-2,-7.151959091E-2,9.718409538E0,9.718846492E0
3.075294836E0,4.884171113E-2,-8.214984834E-2,9.722919464E0,9.723389173E0
3.077294836E0,4.518337548E-2,-8.321287483E-2,9.730265617E0,9.730726330E0
3.079294836E0,4.462791979E-2,-8.634448797E-2,9.732419968E0,9.732905293E0
3.081294836E0,5.538267642E-2,-8.864292502E-2,9.726932526E0,9.727494085E0
3.083294836E0,4.881298542E-2,-8.912176639E-2,9.721550941E0,9.722081984E0
3.085294836E0,4.103661701E-2,-9.159258008E-2,9.716657639E0,9.717175972E0
3.087294836E0,4.112280533E-2,-8.833646029E-2,9.726119041E0,9.726607118E0
3.089294836E0,4.199429601E-2,-8.061756194E-2,9.741067886E0,9.741491994E0
3.091294836E0,4.587290436E-2,-7.733272016E-2,9.755796432E0,9.756210776E0
3.093294836E0,5.388868973E-2,-7.737102360E-2,9.766493797E0,9.766948928E0
3.095294836E0,5.189671740E-2,-8.098147810E-2,9.767547607E0,9.768021168E0
3.097294836E0,4.698381573E-2,-8.462066948E-2,9.762136459E0,9.762616268E0
3.099294836E0,4.630386084E-2,-8.880573511E-2,9.755146027E0,9.755660127E0
3.101294836E0,4.696466029E-2,-8.799169958E-2,9.744467735E0,9.744978177E0
3.103294836E0,4.689761996E-2,-7.477571070E-2,9.737697601E0,9.738097626E0
3.105294836E0,4.541321844E-2,-6.642472744E-2,9.731146812E0,9.731479481E0
3.107294836E0,5.615839362E-2,-6.638642401E-2,9.730859756E0,9.731248251E0
3.109294836E0,6.340803951E-2,-6.663542241E-2,9.736759186E0,9.737193656E0
3.111294836E0,6.229712814E-2,-6.721002609E-2,9.741327286E0,9.741758332E0
3.113294836E0,6.148310006E-2,-6.125325710E-2,9.743950844E0,9.744337339E0
3.115294836E0,6.081272662E-2,-5.855259672E-2,9.751315117E0,9.751680527E0
3.117294836E0,6.241204962E-2,-5.451118574E-2,9.756860733E0,9.757212619E0
3.119471399E0,5.299805105E-2,-5.641696975E-2,9.752340317E0,9.752647503E0
3.121294836E0,5.405149981E-2,-5.231809616E-2,9.739018440E0,9.739308955E0
3.123294836E0,6.237374246E-2,-5.393657833E-2,9.739909172E0,9.740258226E0
3.125294836E0,7.184520364E-2,-5.976885185E-2,9.743031502E0,9.743479712E0
3.127294836E0,6.234501302E-2,-5.827486888E-2,9.741231918E0,9.741605727E0
3.129294836E0,6.818686426E-2,-6.109045073E-2,9.733799934E0,9.734230460E0
3.131440149E0,6.287173927E-2,-7.218997180E-2,9.734622955E0,9.735093648E0
3.133294836E0,6.170336530E-2,-8.081867546E-2,9.744659424E0,9.745189903E0
3.135294836E0,5.591897666E-2,-8.411309123E-2,9.745358467E0,9.745881879E0
3.137294836E0,4.727111757E-2,-9.264602512E-2,9.737209320E0,9.737764794E0
3.139443274E0,4.358404875E-2,-9.493488073E-2,9.726185799E0,9.726746753E0
3.141580774E0,4.137180746E-2,-9.705135971E-2,9.719683647E0,9.720256210E0
3.143340149E0,3.775177523E-2,-9.733866155E-2,9.730188370E0,9.730748467E0
3.145294836E0,3.116292879E-2,-1.047319546E-1,9.744650841E0,9.745263461E0
3.147294836E0,3.829764947E-2,-1.089936346E-1,9.754887581E0,9.755571641E0
3.149294836E0,4.255932942E-2,-1.149695665E-1,9.755443573E0,9.756213846E0
3.151294836E0,3.562572226E-2,-1.298519224E-1,9.761333466E0,9.762262122E0
3.153294836E0,2.057098038E-2,-1.495035291E-1,9.766493797E0,9.767659677E0
3.155294836E0,6.004657596E-3,-1.677856594E-1,9.758287430E0,9.759731638E0
3.157294836E0,-3.983951639E-3,-1.843152195E-1,9.742772102E0,9.744516212E0
3.159294836E0,-8.743625134E-3,-1.947922558E-1,9.734192848E0,9.736145586E0
3.161294836E0,-4.146757070E-3,-1.957978159E-1,9.735782623E0,9.737752167E0
3.163294836E0,5.085284356E-3,-1.919000596E-1,9.742983818E0,9.744874816E0
3.165294836E0,1.845450513E-2,-1.864508539E-1,9.751219749E0,9.753019588E0
3.167294836E0,2.691082843E-2,-1.787032187E-1,9.762271881E0,9.763944455E0
3.169294836E0,2.290772274E-2,-1.785499901E-1,9.781271935E0,9.782928269E0
3.171294836E0,2.123178169E-2,-1.645965725E-1,9.786059380E0,9.787466526E0
3.173294836E0,3.364332020E-2,-1.556039602E-1,9.783148766E0,9.784443992E0
3.175294836E0,4.123773053E-2,-1.418325007E-1,9.777125359E0,9.778241012E0
3.177294836E0,3.768473491E-2,-1.351095885E-1,9.767002106E0,9.768009258E0
3.179294836E0,3.543418646E-2,-1.316619366E-1,9.756591797E0,9.757544463E0
3.181294836E0,5.117845535E-2,-1.299668401E-1,9.751411438E0,9.752411786E0
3.183294836E0,7.419151813E-2,-1.263755411E-1,9.748950005E0,9.750051351E0
3.185294836E0,9.002198279E-2,-1.143566519E-1,9.756832123E0,9.757917528E0
3.187294836E0,1.058524475E-1,-9.185115248E-2,9.769396782E0,9.770401980E0
3.189294836E0,1.125179082E-1,-8.384493738E-2,9.770660400E0,9.771667970E0
3.191294836E0,1.259062737E-1,-7.965987921E-2,9.760010719E0,9.761147849E0
3.193294836E0,1.194131970E-1,-7.845319808E-2,9.747436523E0,9.748483636E0
3.195294836E0,1.134085432E-1,-7.241023332E-2,9.727775574E0,9.728706099E0
3.197294836E0,1.143662259E-1,-6.423164159E-2,9.718840599E0,9.719725713E0
3.199471399E0,1.132553145E-1,-5.480806530E-2,9.722939491E0,9.723753547E0
3.201294836E0,1.070399731E-1,-4.468537867E-2,9.733080864E0,9.733772005E0
3.203294836E0,1.089170203E-1,-3.990655392E-2,9.745550156E0,9.746240469E0
3.205294836E0,1.161283553E-1,-2.873999812E-2,9.743864059E0,9.744598432E0
3.207294836E0,1.174691096E-1,-1.896207780E-2,9.744304657E0,9.745031134E0
3.209294836E0,1.268926859E-1,-1.387679297E-2,9.750606537E0,9.751442055E0
3.211294836E0,1.326387823E-1,-6.799532566E-4,9.756917953E0,9.757819503E0
3.213294836E0,1.389786154E-1,1.524627674E-2,9.762817383E0,9.763818452E0
3.215294836E0,1.464581043E-1,4.349785671E-2,9.762701988E0,9.763897385E0
3.217296399E0,1.428284943E-1,6.343676895E-2,9.758229256E0,9.759480642E0
3.219294836E0,1.126807109E-1,5.266286060E-2,9.757675171E0,9.758467864E0
3.221294836E0,8.206366003E-2,3.603752702E-2,9.763009071E0,9.763420470E0
3.223294836E0,6.745903194E-2,2.744712867E-2,9.769338608E0,9.769610069E0
3.225294836E0,7.376056910E-2,5.760449171E-2,9.772958755E0,9.773406864E0
3.227294836E0,8.030152321E-2,1.116464138E-1,9.776100159E0,9.777067432E0
3.229294836E0,7.708371431E-2,1.382986605E-1,9.778216362E0,9.779498128E0
3.231294836E0,7.167281955E-2,1.473487616E-1,9.768246651E0,9.769620836E0
3.233294836E0,6.720045209E-2,1.398501098E-1,9.754264832E0,9.755498775E0
3.235296399E0,6.310158223E-2,1.343242973E-1,9.744027138E0,9.745157243E0
3.237296399E0,6.508397311E-2,1.306276470E-1,9.746077538E0,9.747170198E0
3.239471399E0,6.027641892E-2,1.176223382E-1,9.748614311E0,9.749510206E0
3.241294836E0,5.294058472E-2,9.864111245E-2,9.748623848E0,9.749266624E0
3.243294836E0,5.572744086E-2,7.346368581E-2,9.753259659E0,9.753695527E0
3.245294836E0,5.900270864E-2,4.792233929E-2,9.754120827E0,9.754416998E0
3.247294836E0,6.224924326E-2,2.723643929E-2,9.755041122E0,9.755277756E0
3.249294836E0,5.519114062E-2,1.302445680E-2,9.762414932E0,9.762579629E0
3.251294836E0,5.139872432E-2,-2.173935063E-3,9.762271881E0,9.762407430E0
3.253294836E0,5.301720276E-2,-1.086967532E-2,9.760700226E0,9.760850264E0
3.255296399E0,5.355350673E-2,-1.849281229E-2,9.758852959E0,9.759017421E0
3.257294836E0,5.670427158E-2,-2.523488551E-2,9.759839058E0,9.760036404E0
3.259294836E0,5.278735608E-2,-2.374090441E-2,9.765172958E0,9.765344492E0
3.261294836E0,4.841075838E-2,-3.016694076E-2,9.763036728E0,9.763203357E0
3.263294836E0,4.938759282E-2,-2.627875656E-2,9.768870354E0,9.769030540E0
3.265294836E0,5.358223245E-2,-3.663128614E-2,9.765613556E0,9.765829255E0
3.267294836E0,5.918466672E-2,-4.067269713E-2,9.759388924E0,9.759653132E0
