"Time (s)","Acceleration x (m/s^2)","Acceleration y (m/s^2)","Acceleration z (m/s^2)","Absolute acceleration (m/s^2)"
0.000000000E0,-1.623268612E-2,8.940906823E-2,9.758469582E0,9.758892665E0
1.299022000E-3,-1.671152934E-2,8.606676757E-2,9.760164261E0,9.760558035E0
3.299022000E-3,-7.287950255E-3,8.770439774E-2,9.763009071E0,9.763405723E0
5.299022000E-3,-5.573701579E-3,9.358455986E-2,9.759197235E0,9.759647525E0
7.299022000E-3,-5.707777105E-3,9.290460497E-2,9.756160736E0,9.756604745E0
9.299022000E-3,-1.159751322E-2,9.443689138E-2,9.742475510E0,9.742940105E0
1.129902200E-2,-1.162624359E-2,9.026140720E-2,9.732506752E0,9.732932239E0
1.329902200E-2,-7.412448525E-3,8.791508526E-2,9.722517967E0,9.722918267E0
1.529902200E-2,-1.620395668E-2,8.226477355E-2,9.709157944E0,9.709519969E0
1.729902200E-2,-2.400905453E-2,7.875965536E-2,9.711495399E0,9.711844439E0
1.929902200E-2,-2.288856916E-2,8.122090250E-2,9.716972351E0,9.717338751E0
2.129902200E-2,-2.174892835E-2,8.037813753E-2,9.719032288E0,9.719388986E0
2.330058400E-2,-1.693179458E-2,7.615476847E-2,9.723733902E0,9.724046855E0
2.529902200E-2,-1.396298409E-2,7.274542004E-2,9.725630760E0,9.725912839E0
2.729902200E-2,-1.412578952E-2,7.038952410E-2,9.728368759E0,9.728633662E0
2.929902200E-2,-1.387679297E-2,7.396167517E-2,9.734172821E0,9.734463694E0
3.129902200E-2,-9.165003896E-3,8.923668414E-2,9.735694885E0,9.736108159E0
3.329902200E-2,-1.222958229E-2,9.356539696E-2,9.738396645E0,9.738853796E0
3.529902200E-2,-1.097502001E-2,8.669883013E-2,9.742887497E0,9.743279423E0
3.729902200E-2,4.213795182E-4,9.385270625E-2,9.752627373E0,9.753078959E0
3.929902200E-2,3.543418366E-3,9.809523076E-2,9.757826805E0,9.758320511E0
4.129902200E-2,1.031422149E-2,9.426451474E-2,9.764052391E0,9.764512854E0
4.329902200E-2,1.197100803E-2,8.849927783E-2,9.756525040E0,9.756933754E0
4.529902200E-2,6.694188341E-3,9.223423153E-2,9.751995087E0,9.752433549E0
4.729902200E-2,8.140285499E-3,8.952398598E-2,9.747244835E0,9.747659344E0
4.929902200E-2,5.401318893E-3,8.289684355E-2,9.746804237E0,9.747158248E0
5.129902200E-2,6.320692599E-3,9.013690054E-2,9.744650841E0,9.745069760E0
5.329902200E-2,5.516240373E-3,8.979213983E-2,9.747791290E0,9.748206404E0
5.529902200E-2,1.173158828E-2,8.707232773E-2,9.739995003E0,9.740391259E0
5.729902200E-2,7.431602105E-3,8.804916590E-2,9.740550995E0,9.740951779E0
5.929902200E-2,6.818686612E-3,9.019436687E-2,9.742668152E0,9.743088024E0
6.130058400E-2,2.403778490E-3,8.320330083E-2,9.742523193E0,9.742878771E0
6.329902200E-2,-2.106897533E-3,8.546342701E-2,9.751237869E0,9.751612606E0
6.529902200E-2,1.331176143E-3,9.079770744E-2,9.757425308E0,9.757847849E0
6.729902200E-2,-2.557007363E-3,9.985736012E-2,9.760106087E0,9.760617237E0
6.929902200E-2,-4.692635499E-3,1.003745124E-1,9.763889313E0,9.764406361E0
7.129902200E-2,-1.107078884E-2,1.011406556E-1,9.760996819E0,9.761527078E0
7.347558400E-2,-1.749682613E-2,9.862195700E-2,9.757492065E0,9.758006140E0
7.529902200E-2,-1.651041396E-2,9.328767657E-2,9.759054184E0,9.759514012E0
7.729902200E-2,-1.821508631E-2,8.899726719E-2,9.757636070E0,9.758058925E0
7.929902200E-2,-1.246900298E-2,8.648814261E-2,9.750243187E0,9.750634742E0
8.129902200E-2,-1.162624359E-2,7.994718105E-2,9.743156433E0,9.743491366E0
8.347558400E-2,-1.968033798E-2,7.805097103E-2,9.745415688E0,9.745748108E0
8.529902200E-2,-1.840662211E-2,8.006210625E-2,9.743903160E0,9.744249460E0
8.729902200E-2,-2.480393089E-2,8.060798794E-2,9.744142532E0,9.744507508E0
8.929902200E-2,-2.964021638E-2,8.545385301E-2,9.747743607E0,9.748163228E0
9.129902200E-2,-2.633621730E-2,8.802042902E-2,9.746728897E0,9.747161914E0
9.329902200E-2,-1.901953854E-2,8.412267268E-2,9.748758316E0,9.749139812E0
9.529902200E-2,-2.190215699E-2,8.197746426E-2,9.742648125E0,9.743017628E0
9.730058400E-2,-1.253604051E-2,8.188170195E-2,9.741086960E0,9.741439161E0
9.930058400E-2,-7.038952783E-3,8.889192343E-2,9.741422653E0,9.741830764E0
1.013005840E-1,-5.516240373E-3,8.970595151E-2,9.742236137E0,9.742650694E0
1.033005840E-1,-1.036210544E-2,9.617987275E-2,9.755710602E0,9.756190204E0
1.052990220E-1,-1.037168223E-2,9.862195700E-2,9.763545036E0,9.764048624E0
1.073005840E-1,-1.218169741E-2,9.565314651E-2,9.764578819E0,9.765054912E0
1.092990220E-1,-2.333867922E-2,9.719501436E-2,9.765766144E0,9.766277691E0
1.113005840E-1,-3.476380929E-2,9.836337715E-2,9.764789581E0,9.765346868E0
1.133005840E-1,-3.462015465E-2,9.863153100E-2,9.762817383E0,9.763376976E0
1.152990220E-1,-3.063620627E-2,9.023267031E-2,9.759360313E0,9.759825523E0
1.173005840E-1,-2.980302274E-2,9.425493330E-2,9.756352425E0,9.756853225E0
1.193005840E-1,-3.231214359E-2,9.502107650E-2,9.756994247E0,9.757510432E0
1.213005840E-1,-3.024355508E-2,9.323021770E-2,9.764684677E0,9.765176567E0
1.233005840E-1,-2.531149983E-2,9.063490480E-2,9.756209373E0,9.756663195E0
1.252990220E-1,-2.814623527E-2,8.232222497E-2,9.754380226E0,9.754768206E0
1.272990220E-1,-3.181415051E-2,8.355764300E-2,9.750731468E0,9.751141379E0
1.292990220E-1,-3.190034255E-2,8.436208963E-2,9.749304771E0,9.749721951E0
1.312990220E-1,-2.904645540E-2,7.120355964E-2,9.744630814E0,9.744934240E0
1.334474590E-1,-3.302082792E-2,6.917327642E-2,9.741977692E0,9.742279233E0
1.355849590E-1,-4.009808972E-2,7.478528470E-2,9.746105194E0,9.746474601E0
1.373443340E-1,-4.071100801E-2,7.692091167E-2,9.746009827E0,9.746398399E0
1.392990220E-1,-3.872860596E-2,7.543651015E-2,9.750932693E0,9.751301399E0
1.412990220E-1,-4.134307429E-2,7.710287720E-2,9.760251045E0,9.760643143E0
1.432990220E-1,-3.709097207E-2,7.508216798E-2,9.764214516E0,9.764573630E0
1.452990220E-1,-4.080677405E-2,8.170931041E-2,9.762807846E0,9.763235050E0
1.472990220E-1,-3.843172640E-2,8.191043139E-2,9.759675980E0,9.760095365E0
1.492990220E-1,-3.077985719E-2,7.986099273E-2,9.744965553E0,9.745341390E0
1.512990220E-1,-3.108631447E-2,8.157524467E-2,9.741067886E0,9.741459051E0
1.534755840E-1,-3.023397736E-2,8.204450458E-2,9.738051414E0,9.738443959E0
1.552990220E-1,-3.198653460E-2,8.030152321E-2,9.734537125E0,9.734920878E0
1.572990220E-1,-3.266648948E-2,8.173804730E-2,9.732353210E0,9.732751267E0
1.592990220E-1,-3.460100293E-2,8.137413114E-2,9.739191055E0,9.739592465E0
1.612990220E-1,-3.004244156E-2,8.845138550E-2,9.742830276E0,9.743278093E0
1.632990220E-1,-2.730347589E-2,8.618168533E-2,9.741480827E0,9.741900301E0
1.652990220E-1,-2.462197095E-2,8.673713356E-2,9.745166779E0,9.745583878E0
1.672990220E-1,-2.785892971E-2,7.955453545E-2,9.755174637E0,9.755538798E0
1.692990220E-1,-2.413355187E-2,8.158481866E-2,9.754093170E0,9.754464213E0
1.712990220E-1,-1.957499236E-2,8.206366003E-2,9.750577927E0,9.750942905E0
1.732990220E-1,-1.255519409E-2,9.051997960E-2,9.749381065E0,9.749809365E0
1.752990220E-1,-7.776367012E-3,9.308656305E-2,9.756190300E0,9.756637471E0
1.772990220E-1,2.461239230E-3,1.049043462E-1,9.761505127E0,9.762069111E0
1.792990220E-1,-3.380612936E-3,1.108036563E-1,9.763477325E0,9.764106634E0
1.812990220E-1,-9.097966366E-3,1.060727164E-1,9.762329102E0,9.762909591E0
1.832990220E-1,-4.118026700E-3,1.001638249E-1,9.759522438E0,9.760037293E0
1.852990220E-1,1.110909623E-3,1.005277410E-1,9.757962227E0,9.758480101E0
1.872990220E-1,-3.150769509E-3,1.008820832E-1,9.752904892E0,9.753427139E0
1.892990220E-1,-1.043871976E-3,1.087829545E-1,9.743597031E0,9.744204324E0
1.914443340E-1,-1.388637000E-3,1.085914150E-1,9.736528397E0,9.737134036E0
1.932990220E-1,-8.073247969E-3,1.057279408E-1,9.734871864E0,9.735449337E0
1.952990220E-1,-1.464293804E-2,9.741527587E-2,9.735015869E0,9.735514271E0
1.972990220E-1,-1.519839186E-2,8.960060030E-2,9.739593506E0,9.740017501E0
1.992990220E-1,-1.009395439E-2,8.866208047E-2,9.738799095E0,9.739207908E0
2.012990220E-1,-9.088389575E-3,8.863334358E-2,9.732736588E0,9.733144402E0
2.032990220E-1,-7.058106363E-3,8.566453308E-2,9.731616020E0,9.731995612E0
2.052990220E-1,-2.394201729E-4,8.067502081E-2,9.736472130E0,9.736806358E0
2.072990220E-1,2.489969775E-4,7.806055248E-2,9.738271713E0,9.738584572E0
2.092990220E-1,-6.512228865E-4,7.179731876E-2,9.741949081E0,9.742213670E0
2.112990220E-1,-4.912901670E-3,7.526411861E-2,9.749257088E0,9.749548840E0
2.132990220E-1,-1.066856273E-2,7.052360475E-2,9.757664680E0,9.757925364E0
2.152990220E-1,-1.788947545E-2,6.670246273E-2,9.760135651E0,9.760379971E0
2.172990220E-1,-1.649126038E-2,7.569508255E-2,9.753594398E0,9.753902060E0
2.192990220E-1,-1.274672989E-2,7.484274358E-2,9.746794701E0,9.747090379E0
2.212990220E-1,-4.845864139E-3,7.731355727E-2,9.747943878E0,9.748251675E0
2.232990220E-1,-1.446097856E-3,7.532158494E-2,9.744640350E0,9.744931554E0
2.252990220E-1,4.644751083E-3,7.015968114E-2,9.743185043E0,9.743438754E0
2.272990220E-1,3.055001143E-3,7.254431397E-2,9.745531082E0,9.745801562E0
2.292990220E-1,-2.039859770E-3,8.282022923E-2,9.742054939E0,9.742407187E0
2.312990220E-1,-6.138733588E-3,8.091444522E-2,9.739593506E0,9.739931544E0
2.334755840E-1,-4.328716546E-3,8.425674587E-2,9.736940384E0,9.737305889E0
2.352990220E-1,0.000000000E0,8.810661733E-2,9.743041039E0,9.743439406E0
2.372990220E-1,2.451662440E-3,8.925583959E-2,9.742294312E0,9.742703478E0
2.392990220E-1,3.083731979E-3,8.578903228E-2,9.744640350E0,9.745018462E0
2.412990220E-1,-2.873042104E-5,8.681374788E-2,9.749457359E0,9.749843867E0
2.432990220E-1,-6.770802662E-3,8.999325335E-2,9.755232811E0,9.755650251E0
2.452990220E-1,-1.341710705E-2,8.867165446E-2,9.752963066E0,9.753375377E0
2.472990220E-1,-1.013226155E-2,8.821196854E-2,9.755941391E0,9.756345445E0
2.492990220E-1,-1.145386137E-2,8.871953934E-2,9.762961388E0,9.763371211E0
2.512990220E-1,-1.478658989E-2,8.701486886E-2,9.762443542E0,9.762842524E0
2.532990220E-1,-2.326206490E-2,8.875784278E-2,9.761907578E0,9.762338789E0
2.552990220E-1,-2.477519959E-2,8.654560149E-2,9.758708954E0,9.759124161E0
2.572990220E-1,-2.618298866E-2,9.535626322E-2,9.750482559E0,9.750983976E0
2.592990220E-1,-2.095405385E-2,1.007384360E-1,9.744218826E0,9.744762072E0
2.612990220E-1,-1.870350540E-2,1.041765064E-1,9.735714912E0,9.736290229E0
2.632990220E-1,-2.365471236E-2,1.104493067E-1,9.730237007E0,9.730892601E0
2.652990220E-1,-2.320460230E-2,1.108802706E-1,9.730466843E0,9.731126238E0
2.672990220E-1,-2.420059033E-2,1.073081195E-1,9.729269981E0,9.729891832E0
2.692990220E-1,-2.296518348E-2,1.068580076E-1,9.730658531E0,9.731272347E0
2.712990220E-1,-2.281195484E-2,9.954132885E-2,9.740397453E0,9.740932779E0
2.732990220E-1,-1.401086804E-2,9.321106225E-2,9.754407883E0,9.754863287E0
2.752990220E-1,-1.320641581E-2,8.630618453E-2,9.759263992E0,9.759654545E0
2.772990220E-1,-1.297657285E-2,8.567410707E-2,9.765680313E0,9.766064736E0
2.792990220E-1,-1.376187149E-2,8.763735741E-2,9.774912834E0,9.775315371E0
2.812990220E-1,-2.415270545E-2,8.439082652E-2,9.779959679E0,9.780353597E0
2.832990220E-1,-2.123178169E-2,8.321287483E-2,9.773878098E0,9.774255380E0
2.852990220E-1,-2.367386594E-2,8.951441199E-2,9.767595291E0,9.768034145E0
2.872990220E-1,-2.306095138E-2,9.110416472E-2,9.758593559E0,9.759046062E0
2.892990220E-1,-2.444000915E-2,8.263827115E-2,9.755050659E0,9.755431295E0
2.912990220E-1,-2.425805107E-2,8.588480204E-2,9.751335144E0,9.751743523E0
2.932990220E-1,-2.694913559E-2,8.952398598E-2,9.750137329E0,9.750585559E0
2.952990220E-1,-2.267787978E-2,8.758947998E-2,9.754945755E0,9.755365338E0
2.972990220E-1,-1.955583878E-2,7.601111382E-2,9.755443573E0,9.755759295E0
2.992990220E-1,-1.959414594E-2,7.467994094E-2,9.756093979E0,9.756399477E0
3.012990220E-1,-2.546472847E-2,7.332003117E-2,9.751813889E0,9.752122764E0
3.032990220E-1,-3.242706507E-2,7.120355964E-2,9.756610870E0,9.756924574E0
3.052990220E-1,-3.277183324E-2,7.978437841E-2,9.761945724E0,9.762326765E0
3.072990220E-1,-4.250187054E-2,8.962933719E-2,9.764128685E0,9.764632548E0
3.092990220E-1,-4.479072616E-2,8.825027198E-2,9.765028954E0,9.765530440E0
3.112990220E-1,-3.608540818E-2,9.060616791E-2,9.758114815E0,9.758602173E0
3.134755840E-1,-3.302082792E-2,9.342174977E-2,9.756726265E0,9.757229392E0
3.152990220E-1,-3.268564120E-2,9.368990362E-2,9.754198074E0,9.754702775E0
3.172990220E-1,-3.580768034E-2,9.509769082E-2,9.757607460E0,9.758136559E0
3.192990220E-1,-4.009808972E-2,8.987833560E-2,9.757846832E0,9.758343137E0
3.212990220E-1,-3.551080078E-2,8.173804730E-2,9.751736641E0,9.752143848E0
3.232990220E-1,-2.714067139E-2,8.168058842E-2,9.749064445E0,9.749444389E0
3.252990220E-1,-2.655648626E-2,9.065405279E-2,9.749840736E0,9.750298344E0
3.272990220E-1,-2.801216021E-2,9.109459072E-2,9.743654251E0,9.744120333E0
3.292990220E-1,-2.816538885E-2,8.433336020E-2,9.737582207E0,9.737988121E0
3.312990220E-1,-2.996582724E-2,7.590577006E-2,9.740838051E0,9.741179886E0
3.332990220E-1,-2.839523181E-2,8.621041477E-2,9.743635178E0,9.744057933E0
3.352990220E-1,-2.707363293E-2,9.932105988E-2,9.742025375E0,9.742569275E0
3.372990220E-1,-2.721728571E-2,9.643844515E-2,9.739249229E0,9.739764715E0
3.392990220E-1,-2.616383508E-2,8.834604919E-2,9.739947319E0,9.740383121E0
3.412990220E-1,-2.651817910E-2,8.425674587E-2,9.745846748E0,9.746247034E0
3.432990220E-1,-2.440170199E-2,8.972510695E-2,9.755184174E0,9.755627314E0
3.452990220E-1,-1.905784570E-2,9.847830236E-2,9.757310867E0,9.757826425E0
3.472990220E-1,-1.561019477E-2,9.665871412E-2,9.758957863E0,9.759449019E0
3.492990220E-1,-6.761225872E-3,9.059659392E-2,9.762874603E0,9.763297290E0
3.512990220E-1,-7.163451519E-3,9.185115248E-2,9.759915352E0,9.760350179E0
3.532990220E-1,-6.981492043E-3,1.005852073E-1,9.755002975E0,9.755524034E0
3.552990220E-1,-7.096413523E-3,1.026920974E-1,9.749601364E0,9.750144757E0
3.572990220E-1,-8.140285499E-3,9.511684626E-2,9.746450424E0,9.746917941E0
3.592990220E-1,-7.967903279E-3,9.086474776E-2,9.745033264E0,9.745460133E0
3.612990220E-1,-3.150769509E-3,8.876742423E-2,9.742408752E0,9.742813653E0
3.632990220E-1,-6.703764666E-5,9.282799065E-2,9.737017632E0,9.737460110E0
3.652990220E-1,-6.742072292E-3,9.460927546E-2,9.736864090E0,9.737326054E0
3.672990220E-1,-1.281376742E-2,9.554779530E-2,9.736643791E0,9.737121027E0
3.692990220E-1,-1.413536631E-2,9.649590403E-2,9.741086960E0,9.741575151E0
3.712990220E-1,-6.282385439E-3,9.768342227E-2,9.742696762E0,9.743188478E0
3.732990220E-1,-2.384624910E-3,9.869857132E-2,9.749208450E0,9.749708329E0
3.752990220E-1,1.426944276E-3,1.044542342E-1,9.755567551E0,9.756126842E0
3.772990220E-1,-5.200206302E-3,9.964667261E-2,9.758641243E0,9.759151367E0
3.792990220E-1,-4.692635499E-3,9.707050771E-2,9.752100945E0,9.752585172E0
3.812990220E-1,-3.801992396E-3,9.243533760E-2,9.744832039E0,9.745271172E0
3.832990220E-1,-8.111555129E-3,9.567230195E-2,9.743165016E0,9.743638105E0
3.852990220E-1,-1.054406445E-2,9.692686796E-2,9.747274399E0,9.747762010E0
3.872990220E-1,-1.092713606E-2,9.766427428E-2,9.750127792E0,9.750623041E0
3.893005840E-1,-1.644337736E-2,1.033337489E-1,9.747791290E0,9.748352850E0
3.912990220E-1,-1.840662211E-2,9.984778613E-2,9.742590904E0,9.743119927E0
3.934755840E-1,-1.218169741E-2,9.788454324E-2,9.732573509E0,9.733073353E0
3.952990220E-1,-1.029506698E-2,9.617987275E-2,9.725822449E0,9.726303453E0
3.972990220E-1,-4.797980189E-3,9.547118098E-2,9.718476295E0,9.718946408E0
3.992990220E-1,-8.111555129E-3,1.031900942E-1,9.717863083E0,9.718414320E0
4.012990220E-1,-1.078348421E-2,1.031422094E-1,9.728282928E0,9.728835662E0
4.032990220E-1,-7.690175902E-3,9.961794317E-2,9.740809441E0,9.741321852E0
4.052990220E-1,-1.496854890E-2,9.917741269E-2,9.750070572E0,9.750586463E0
4.072990220E-1,-1.289995853E-2,9.480081499E-2,9.758105278E0,9.758574292E0
4.092990220E-1,-1.291911211E-2,1.009012386E-1,9.769942284E0,9.770471851E0
4.112990220E-1,-9.509769268E-3,9.188945591E-2,9.770516396E0,9.770953113E0
4.132990220E-1,-7.843405008E-3,8.903557807E-2,9.762032509E0,9.762441680E0
4.152990220E-1,-2.288856916E-2,8.642110229E-2,9.755931854E0,9.756341468E0
4.172990220E-1,-2.783977613E-2,8.851842582E-2,9.755529404E0,9.755970711E0
4.194443340E-1,-2.462197095E-2,8.392155170E-2,9.754159927E0,9.754552012E0
4.212990220E-1,-2.456451021E-2,8.595184237E-2,9.759303093E0,9.759712495E0
4.232990220E-1,-2.095405385E-2,9.022309631E-2,9.754629135E0,9.755068879E0
4.252990220E-1,-1.796608977E-2,9.070193768E-2,9.749936104E0,9.750374539E0
4.272990220E-1,-1.104205754E-2,8.573157340E-2,9.747848511E0,9.748231759E0
4.292990220E-1,-1.811931841E-2,7.247727364E-2,9.743126869E0,9.743413286E0
4.312990220E-1,-2.269703336E-2,7.633672655E-2,9.739727974E0,9.740053565E0
4.334755840E-1,-2.634579502E-2,7.716991007E-2,9.734766960E0,9.735108477E0
4.352990220E-1,-2.003468014E-2,8.167100698E-2,9.737065315E0,9.737428433E0
4.372990220E-1,-2.009214088E-2,7.869262248E-2,9.743185043E0,9.743523542E0
4.392990220E-1,-2.853888460E-2,8.566453308E-2,9.744621277E0,9.745039595E0
4.412990220E-1,-2.173935063E-2,8.316498995E-2,9.755721092E0,9.756099787E0
4.432990220E-1,-2.075294033E-2,8.211154491E-2,9.758373260E0,9.758740784E0
4.452990220E-1,-1.751597971E-2,8.259996027E-2,9.761936188E0,9.762301352E0
4.472990220E-1,-1.785116829E-2,8.248503506E-2,9.755740166E0,9.756105198E0
4.492990220E-1,-1.774582267E-2,7.839573920E-2,9.752608299E0,9.752939528E0
4.512990220E-1,-2.648944780E-2,7.828081399E-2,9.753067970E0,9.753418089E0
4.532990220E-1,-3.255156800E-2,7.683472335E-2,9.750290871E0,9.750647940E0
4.552990220E-1,-3.491703793E-2,8.282980323E-2,9.752779961E0,9.753194191E0
4.572990220E-1,-3.168965504E-2,9.037632495E-2,9.753250122E0,9.753720319E0
4.592990220E-1,-2.841438539E-2,8.857589215E-2,9.758852959E0,9.759296293E0
4.612990220E-1,-1.966118440E-2,9.420704842E-2,9.763334274E0,9.763808564E0
4.632990220E-1,-1.004607044E-2,9.381440282E-2,9.760576248E0,9.761032259E0
4.652990220E-1,-5.640739575E-3,9.063490480E-2,9.748002052E0,9.748425027E0
4.672990220E-1,-2.547430573E-3,9.396763146E-2,9.747129440E0,9.747582712E0
4.692990220E-1,-7.029375993E-3,9.901460260E-2,9.755845070E0,9.756350052E0
4.712990220E-1,-9.203311056E-3,8.816408366E-2,9.762779236E0,9.763181654E0
4.734755840E-1,-1.432690304E-2,7.809886336E-2,9.760058403E0,9.760381382E0
4.752990220E-1,-1.110909600E-2,7.897035033E-2,9.771004677E0,9.771330110E0
4.772990220E-1,-1.494939532E-2,7.880754024E-2,9.778982162E0,9.779311134E0
4.792990220E-1,-1.487278100E-2,8.441955596E-2,9.779807091E0,9.780182748E0
4.812990220E-1,-1.417367347E-2,8.577945828E-2,9.774242401E0,9.774629073E0
4.832990220E-1,-2.393244021E-2,8.411309123E-2,9.769406319E0,9.769797725E0
4.852990220E-1,-2.240972780E-2,7.601111382E-2,9.764636993E0,9.764958551E0
4.872990220E-1,-1.945049502E-2,7.593449950E-2,9.759455681E0,9.759770466E0
4.892990220E-1,-2.878788114E-2,7.234320045E-2,9.756447792E0,9.756758468E0
4.912990220E-1,-3.101927787E-2,8.043560386E-2,9.750165939E0,9.750547058E0
4.932990220E-1,-3.937025368E-2,9.305783361E-2,9.749850273E0,9.750373845E0
4.952990220E-1,-4.777869210E-2,9.095093608E-2,9.748336792E0,9.748878145E0
4.972990220E-1,-4.267425090E-2,8.303091675E-2,9.754609108E0,9.755055821E0
4.992990220E-1,-3.219722211E-2,7.553227246E-2,9.756420135E0,9.756765634E0
5.012990220E-1,-3.213018924E-2,6.863696873E-2,9.745942116E0,9.746236766E0
5.032990220E-1,-2.850057743E-2,7.506301254E-2,9.736547470E0,9.736878523E0
5.052990220E-1,-2.521573193E-2,8.707232773E-2,9.733903885E0,9.734325979E0
5.072990220E-1,-2.419101261E-2,8.443870395E-2,9.735733986E0,9.736130204E0
5.092990220E-1,-2.695871145E-2,9.325893968E-2,9.743481636E0,9.743965230E0
5.112990220E-1,-3.304956108E-2,9.006986767E-2,9.749112129E0,9.749584205E0
5.132990220E-1,-3.532884270E-2,8.868122846E-2,9.759560585E0,9.760027423E0
5.152990220E-1,-3.590345010E-2,8.642110229E-2,9.768630028E0,9.769078272E0
5.172990220E-1,-3.985866904E-2,7.956410944E-2,9.766925812E0,9.767331210E0
5.192990220E-1,-3.177584335E-2,8.058883250E-2,9.763343811E0,9.763728112E0
5.212990220E-1,-8.916007355E-3,7.594407350E-2,9.760556221E0,9.760855738E0
5.233005840E-1,-1.723825117E-4,7.971733809E-2,9.757779121E0,9.758104748E0
5.252990220E-1,-7.757213898E-4,8.048348129E-2,9.758584023E0,9.758915940E0
5.272990220E-1,-1.244984916E-3,8.155608177E-2,9.757942200E0,9.758283093E0
5.292990220E-1,-5.315127783E-3,8.959102631E-2,9.752368927E0,9.752781885E0
5.312990220E-1,-6.272808649E-3,9.129569679E-2,9.745186806E0,9.745616457E0
5.332990220E-1,-5.612008739E-3,8.952398598E-2,9.748269081E0,9.748681763E0
5.352990220E-1,-4.874594510E-3,8.835562319E-2,9.740416527E0,9.740818477E0
5.372990220E-1,-2.930502873E-3,8.469728380E-2,9.736557961E0,9.736926781E0
5.392990220E-1,-2.930502873E-3,8.305007219E-2,9.731452942E0,9.731807759E0
5.412990220E-1,-4.357446916E-3,9.098923951E-2,9.728896141E0,9.729322595E0
5.432990220E-1,2.413355280E-3,8.946652710E-2,9.734134674E0,9.734546108E0
5.452990220E-1,6.742072292E-3,8.780016005E-2,9.727143288E0,9.727541872E0
5.472990220E-1,2.212242456E-3,9.264602512E-2,9.727661133E0,9.728102554E0
5.492990220E-1,3.936067689E-3,9.057743847E-2,9.734756470E0,9.735178647E0
5.512990220E-1,4.146757070E-3,8.314583451E-2,9.747303009E0,9.747658507E0
5.534755840E-1,5.592855159E-3,7.969819009E-2,9.750903130E0,9.751230431E0
5.553318340E-1,2.901772503E-3,8.470685780E-2,9.746201515E0,9.746570045E0
5.572990220E-1,-3.227383830E-3,8.739794046E-2,9.743500710E0,9.743893210E0
5.592990220E-1,-1.173158828E-2,8.890149742E-2,9.747561455E0,9.747973914E0
5.612990220E-1,-9.481038898E-3,8.549215645E-2,9.746220589E0,9.746600154E0
5.632990220E-1,-8.667009883E-3,8.298303187E-2,9.738387108E0,9.738744517E0
5.652990220E-1,-1.593580656E-2,7.968860865E-2,9.734335899E0,9.734675117E0
5.672990220E-1,-1.323514618E-2,8.131666481E-2,9.734431267E0,9.734779898E0
5.692990220E-1,-1.442267094E-2,7.661445439E-2,9.732525826E0,9.732838062E0
5.712990220E-1,-9.595960379E-3,8.651687950E-2,9.725851059E0,9.726240593E0
5.732990220E-1,4.405330983E-4,9.481038898E-2,9.718380928E0,9.718843402E0
5.752990220E-1,1.116655674E-2,9.351751953E-2,9.713898659E0,9.714355222E0
5.772990220E-1,8.092401549E-3,9.371862561E-2,9.716753006E0,9.717208326E0
5.792990220E-1,1.340752933E-3,9.395805001E-2,9.727746964E0,9.728200805E0
5.812990220E-1,-2.834734973E-3,9.433154762E-2,9.737620354E0,9.738077666E0
5.832990220E-1,-5.372588523E-3,8.760862797E-2,9.742256165E0,9.742651554E0
5.852990220E-1,7.086837431E-4,8.790551126E-2,9.746000290E0,9.746396746E0
5.872990220E-1,2.863465343E-3,8.626787364E-2,9.751535416E0,9.751917417E0
5.892990220E-1,-2.039859770E-3,8.268614858E-2,9.755021095E0,9.755371737E0
5.912990220E-1,-1.187524013E-2,9.155427665E-2,9.756458282E0,9.756895071E0
5.932990220E-1,-8.877700195E-3,9.515514970E-2,9.754457474E0,9.754925624E0
5.952990220E-1,-6.445190869E-3,9.263645113E-2,9.745559692E0,9.746002092E0
5.972990220E-1,-2.719813026E-3,9.017521143E-2,9.746249199E0,9.746666733E0
5.992990220E-1,-2.001552610E-3,8.060798794E-2,9.745291710E0,9.745625283E0
6.012990220E-1,-8.264783770E-3,7.480443269E-2,9.743710518E0,9.744001163E0
6.032990220E-1,-2.126051113E-3,7.920019329E-2,9.744199753E0,9.744521846E0
6.052990220E-1,3.112462349E-3,7.950665057E-2,9.747312546E0,9.747637296E0
6.072990220E-1,-3.323151963E-3,7.014053315E-2,9.745521545E0,9.745774517E0
6.092990220E-1,-2.097320743E-3,7.076302171E-2,9.738100052E0,9.738357378E0
6.112990220E-1,-1.360864285E-2,7.392337173E-2,9.740445137E0,9.740735153E0
6.132990220E-1,-1.106121205E-2,7.210377604E-2,9.736069679E0,9.736342953E0
6.152990220E-1,-5.430049263E-3,7.527370751E-2,9.734995842E0,9.735288371E0
6.172990220E-1,-1.668279804E-2,8.019617945E-2,9.739545822E0,9.739890275E0
6.192990220E-1,-1.550485007E-2,7.772536576E-2,9.754217148E0,9.754539138E0
6.212990220E-1,-1.575384662E-2,7.336792350E-2,9.758382797E0,9.758671316E0
6.232990220E-1,-1.834916137E-2,7.117483020E-2,9.756936073E0,9.757212926E0
6.252990220E-1,-1.291911211E-2,7.686345279E-2,9.751985550E0,9.752297015E0
6.272990220E-1,-1.522712316E-2,7.656657696E-2,9.750185966E0,9.750498484E0
6.292990220E-1,-2.010171674E-2,7.774451375E-2,9.755519867E0,9.755850356E0
6.312990220E-1,-3.122038953E-2,8.538681269E-2,9.759024620E0,9.759448097E0
6.334771470E-1,-2.935291268E-2,8.648814261E-2,9.760652542E0,9.761079850E0
6.359005840E-1,-2.647029236E-2,8.203493059E-2,9.761227608E0,9.761608208E0
6.377818340E-1,-3.045424633E-2,7.695922256E-2,9.757569313E0,9.757920326E0
6.391490220E-1,-2.627875656E-2,8.393114060E-2,9.760834694E0,9.761230913E0
6.413005840E-1,-2.349190786E-2,8.777143061E-2,9.761007309E0,9.761430191E0
6.432990220E-1,-1.769793965E-2,9.229169041E-2,9.754744530E0,9.755197169E0
6.452990220E-1,-2.299391292E-2,8.811619878E-2,9.751104355E0,9.751529589E0
6.472990220E-1,-2.551261336E-2,9.210972488E-2,9.751066208E0,9.751534612E0
6.494443340E-1,-2.124135755E-2,9.920614213E-2,9.749352455E0,9.749880325E0
6.512990220E-1,-1.141555421E-2,9.644801915E-2,9.753977776E0,9.754461286E0
6.532990220E-1,-7.508216426E-3,9.422620386E-2,9.751066208E0,9.751524350E0
6.552990220E-1,-1.353202853E-2,9.035716951E-2,9.748203278E0,9.748631426E0
6.572990220E-1,-1.554315723E-2,8.479304612E-2,9.747829437E0,9.748210615E0
6.592990220E-1,-2.078167163E-2,8.481220156E-2,9.754954338E0,9.755345157E0
6.612990220E-1,-2.677675337E-2,8.901641518E-2,9.753871918E0,9.754314856E0
6.632990220E-1,-2.987005934E-2,9.505938739E-2,9.753125191E0,9.753634169E0
6.652990220E-1,-3.973417357E-2,9.449435771E-2,9.747282982E0,9.747821988E0
6.672990220E-1,-3.251326084E-2,8.693825454E-2,9.746431351E0,9.746873316E0
6.692990220E-1,-1.642422378E-2,7.711245120E-2,9.750807762E0,9.751126504E0
6.712990220E-1,-1.758301817E-2,7.047571987E-2,9.757033348E0,9.757303713E0
6.732990220E-1,-1.879927330E-2,7.418194413E-2,9.759263992E0,9.759564029E0
6.752990220E-1,-1.549527328E-2,7.254431397E-2,9.754686356E0,9.754968410E0
6.772990220E-1,-1.920149848E-2,7.260177284E-2,9.746125221E0,9.746414548E0
6.792990220E-1,-1.825339347E-2,7.650911063E-2,9.738387108E0,9.738704754E0
6.812990220E-1,-1.809058711E-2,8.134539425E-2,9.737984657E0,9.738341210E0
6.832990220E-1,-2.959233336E-2,8.130709082E-2,9.740675926E0,9.741060212E0
6.852990220E-1,-3.324109688E-2,7.785943896E-2,9.739823341E0,9.740191260E0
6.872990220E-1,-2.383667231E-2,8.211154491E-2,9.739947319E0,9.740322596E0
6.892990220E-1,-2.585737780E-2,8.396944404E-2,9.742274284E0,9.742670461E0
6.912990220E-1,-2.638410218E-2,8.817365766E-2,9.736892700E0,9.737327671E0
6.932990220E-1,-3.554910794E-2,8.201576769E-2,9.737888336E0,9.738298597E0
6.952990220E-1,-3.131615743E-2,8.270530403E-2,9.736126900E0,9.736528533E0
6.972990220E-1,-1.864604466E-2,8.429504931E-2,9.736748695E0,9.737131430E0
6.992990220E-1,-1.112824958E-2,8.780016005E-2,9.741058350E0,9.741460387E0
7.012990220E-1,-6.263231859E-3,8.983044326E-2,9.746191025E0,9.746607011E0
7.032990220E-1,-8.772355504E-3,9.033802152E-2,9.747034073E0,9.747456649E0
7.052990220E-1,-4.328716546E-3,8.701486886E-2,9.743710518E0,9.744100009E0
7.072990220E-1,-4.232948646E-3,8.117301017E-2,9.741192818E0,9.741531937E0
7.092990220E-1,-9.260771796E-3,8.356721699E-2,9.733196259E0,9.733559403E0
7.112990220E-1,-6.924031302E-3,9.018479288E-2,9.726175308E0,9.726595878E0
7.134755840E-1,-2.710236236E-3,9.733866155E-2,9.727861404E0,9.728348763E0
7.152990220E-1,-4.788403399E-3,9.579680115E-2,9.727325439E0,9.727798320E0
7.172990220E-1,1.417367486E-3,8.961975574E-2,9.726616859E0,9.727029826E0
7.192990220E-1,-1.733402023E-3,9.033802152E-2,9.732716560E0,9.733135960E0
7.212990220E-1,2.681505866E-4,8.655518293E-2,9.742973328E0,9.743357796E0
7.233646470E-1,-1.819593366E-3,8.473558724E-2,9.755136490E0,9.755504670E0
7.252990220E-1,-4.960786086E-3,8.774270862E-2,9.765661240E0,9.766056668E0
7.272990220E-1,-8.341399021E-3,9.542330354E-2,9.768630028E0,9.769099641E0
7.292990220E-1,-3.610456130E-3,1.035444364E-1,9.765039444E0,9.765589067E0
7.312990220E-1,2.394201700E-3,9.625648707E-2,9.760030746E0,9.760505684E0
7.333005840E-1,4.405331332E-3,9.812396020E-2,9.759886742E0,9.760380983E0
7.352990220E-1,2.049436560E-3,1.057279408E-1,9.755864143E0,9.756437248E0
7.372990220E-1,4.683058709E-3,1.081317291E-1,9.747388840E0,9.747989721E0
7.392990220E-1,-6.895300467E-4,9.838254005E-2,9.740119934E0,9.740616815E0
7.412990220E-1,-2.518700203E-3,9.860280901E-2,9.733205795E0,9.733705559E0
7.432990220E-1,-3.763685003E-3,9.913910925E-2,9.733243942E0,9.733749553E0
7.452990220E-1,-6.713341922E-3,9.400593489E-2,9.741020203E0,9.741476109E0
7.472990220E-1,-8.034940809E-3,9.862195700E-2,9.739612579E0,9.740115197E0
7.492990220E-1,-3.754108213E-3,9.348878264E-2,9.731596947E0,9.732046721E0
7.512990220E-1,-8.312667720E-3,9.326852113E-2,9.737236977E0,9.737687203E0
7.532990220E-1,9.959879098E-4,9.142019600E-2,9.746230125E0,9.746658930E0
7.552990220E-1,9.854533710E-3,9.670659900E-2,9.746009827E0,9.746494591E0
7.572990220E-1,8.188169450E-3,8.960060030E-2,9.744487762E0,9.744903133E0
7.592990220E-1,-3.620032920E-3,8.346186578E-2,9.745139122E0,9.745497191E0
7.612990220E-1,-8.322244510E-3,8.295430243E-2,9.746575356E0,9.746931919E0
7.632990220E-1,-9.337387048E-3,8.139327914E-2,9.748422623E0,9.748766880E0
7.652990220E-1,-1.614649594E-2,8.301176131E-2,9.750683784E0,9.751050504E0
7.672990220E-1,-1.912488416E-2,8.848011494E-2,9.748920441E0,9.749340709E0
7.692990220E-1,-1.789905131E-2,8.619125932E-2,9.750798225E0,9.751195585E0
7.712990220E-1,-1.274672989E-2,8.487924188E-2,9.755624771E0,9.756002339E0
7.732990220E-1,-1.314895507E-2,7.958326489E-2,9.754935265E0,9.755268751E0
7.752990220E-1,-6.780379452E-3,7.928638160E-2,9.745770454E0,9.746095323E0
7.772990220E-1,-8.121131919E-3,8.144116402E-2,9.741872787E0,9.742216587E0
7.792990220E-1,-8.207323030E-3,8.301176131E-2,9.743673325E0,9.744030386E0
7.812990220E-1,-2.001552656E-2,8.199661970E-2,9.742973328E0,9.743338921E0
7.834755840E-1,-2.467943169E-2,8.297345787E-2,9.738358498E0,9.738743240E0
7.852990220E-1,-1.801397279E-2,8.255207539E-2,9.739450455E0,9.739816965E0
7.872990220E-1,-6.540958770E-3,8.259996027E-2,9.742782593E0,9.743134926E0
7.892990220E-1,-1.368525717E-2,7.808928192E-2,9.744716644E0,9.745039133E0
7.912990220E-1,-1.764047891E-2,8.473558724E-2,9.744621277E0,9.745005651E0
7.934755840E-1,-1.627099328E-2,9.083601087E-2,9.751487732E0,9.751924370E0
7.952990220E-1,-1.404917520E-2,8.269572258E-2,9.759254456E0,9.759614925E0
7.972990220E-1,-1.297657285E-2,8.076121658E-2,9.750127792E0,9.750470898E0
7.992990220E-1,-1.369483396E-2,8.106767386E-2,9.749438286E0,9.749784941E0
8.013005840E-1,-2.802173607E-2,8.077079058E-2,9.757185936E0,9.757560480E0
8.032990220E-1,-2.499546669E-2,7.686345279E-2,9.759350777E0,9.759685463E0
8.052990220E-1,-2.024536952E-2,7.397124916E-2,9.753546715E0,9.753848222E0
8.072990220E-1,-1.857900433E-2,7.444052398E-2,9.750731468E0,9.751033316E0
8.092990220E-1,-1.437478699E-2,7.769662887E-2,9.742313385E0,9.742633807E0
8.112990220E-1,-1.354160532E-2,9.129569679E-2,9.737984657E0,9.738422021E0
8.132990220E-1,-2.192131057E-2,9.355582297E-2,9.737458229E0,9.737932327E0
8.152990220E-1,-2.191173285E-2,9.604579210E-2,9.741632462E0,9.742130564E0
8.172990220E-1,-1.766920835E-2,1.059194878E-1,9.746440887E0,9.747032426E0
8.192990220E-1,-2.030283026E-2,1.045787260E-1,9.749141693E0,9.749723723E0
8.212990220E-1,-1.777455397E-2,9.187030792E-2,9.744850159E0,9.745299416E0
8.232990220E-1,-1.674025878E-2,8.729259670E-2,9.743041039E0,9.743446460E0
8.252990220E-1,-1.647210680E-2,8.597099036E-2,9.745693207E0,9.746086313E0
8.272990220E-1,-2.791639045E-2,8.665094525E-2,9.752321243E0,9.752746144E0
8.292990220E-1,-3.263775632E-2,9.016563743E-2,9.762175560E0,9.762646502E0
8.312990220E-1,-3.411258757E-2,9.697474539E-2,9.770651817E0,9.771192594E0
8.332990220E-1,-4.365108535E-2,1.022515669E-1,9.773907661E0,9.774539978E0
8.352990220E-1,-4.127603769E-2,1.036593542E-1,9.769587517E0,9.770224625E0
8.372990220E-1,-2.964021638E-2,1.021557972E-1,9.766025543E0,9.766604797E0
8.392990220E-1,-2.305137366E-2,9.038589895E-2,9.771895409E0,9.772340603E0
8.412990220E-1,-1.676899008E-2,8.152735978E-2,9.760931015E0,9.761285888E0
8.432990220E-1,-1.592622884E-2,7.932469249E-2,9.754025459E0,9.754361010E0
8.452990220E-1,-2.622129582E-2,8.312668651E-2,9.750625610E0,9.751015198E0
8.472990220E-1,-2.825157903E-2,7.917146385E-2,9.752655983E0,9.753018251E0
8.492990220E-1,-3.109589219E-2,7.767748088E-2,9.749917030E0,9.750276039E0
8.512990220E-1,-3.854664788E-2,8.262868971E-2,9.749073982E0,9.749500339E0
8.532990220E-1,-3.905421868E-2,8.882488310E-2,9.747972488E0,9.748455402E0
8.552990220E-1,-3.666001558E-2,8.745539933E-2,9.743348122E0,9.743809574E0
8.572990220E-1,-3.236960620E-2,8.184339106E-2,9.743213654E0,9.743611160E0
8.592990220E-1,-2.066675015E-2,8.388324827E-2,9.748499870E0,9.748882666E0
8.612990220E-1,-5.104437936E-3,7.975564897E-2,9.751909256E0,9.752236726E0
8.632990220E-1,-6.464344449E-3,8.403647691E-2,9.756764412E0,9.757128456E0
8.652990220E-1,-1.642422378E-2,8.586564660E-2,9.751775742E0,9.752167594E0
8.672990220E-1,-1.378102507E-2,8.720640838E-2,9.751305580E0,9.751705256E0
8.692990220E-1,-8.599972352E-3,8.471643180E-2,9.756573677E0,9.756945257E0
8.712990220E-1,-1.045787334E-2,8.150820434E-2,9.753833771E0,9.754179934E0
8.734755840E-1,-5.640739575E-3,8.038771898E-2,9.754887581E0,9.755220434E0
8.752990220E-1,-4.204218276E-3,8.074206114E-2,9.754475594E0,9.754810663E0
8.772990220E-1,-5.918466486E-3,7.700709999E-2,9.749974251E0,9.750280150E0
8.794443340E-1,-4.338293336E-3,7.240065932E-2,9.744477272E0,9.744747199E0
8.812990220E-1,-1.649126038E-2,6.871359050E-2,9.733310699E0,9.733567213E0
8.832990220E-1,-1.339795347E-2,7.343494892E-2,9.734001160E0,9.734287379E0
8.852990220E-1,-1.085052174E-2,7.076302171E-2,9.735944748E0,9.736207951E0
8.872990220E-1,-9.595960379E-3,7.135678828E-2,9.745128632E0,9.745394601E0
8.892990220E-1,-1.285207458E-2,7.197927684E-2,9.745244026E0,9.745518320E0
8.912990220E-1,-1.278503705E-2,7.595365494E-2,9.739478111E0,9.739782662E0
8.932990220E-1,-8.542511612E-3,7.852981240E-2,9.735369682E0,9.735690153E0
8.952990220E-1,-1.474828226E-3,7.348284125E-2,9.735523224E0,9.735800653E0
8.972990220E-1,-4.347870126E-3,7.135678828E-2,9.743261337E0,9.743523602E0
8.992990220E-1,-7.910442539E-3,7.534073293E-2,9.753479958E0,9.753774146E0
9.012990220E-1,-1.063983236E-2,7.370310277E-2,9.755806923E0,9.756091127E0
9.032990220E-1,-1.089840569E-2,7.820419967E-2,9.758900642E0,9.759220072E0
9.052990220E-1,-7.402871735E-3,8.098147810E-2,9.766254425E0,9.766592973E0
9.072990220E-1,-6.560112350E-3,8.375874907E-2,9.768486023E0,9.768847309E0
9.092990220E-1,-5.458779633E-3,8.173804730E-2,9.760931015E0,9.761274773E0
9.112990220E-1,-1.388637000E-3,9.037632495E-2,9.751679420E0,9.752098304E0
9.132990220E-1,5.267243832E-3,9.507853538E-2,9.742054939E0,9.742520316E0
9.152990220E-1,5.975927226E-3,9.414958954E-2,9.738109589E0,9.738566538E0
9.172990220E-1,-1.666364376E-3,9.182242304E-2,9.738807678E0,9.739240685E0
9.192990220E-1,-7.048529573E-3,9.011775255E-2,9.743597031E0,9.744016317E0
9.212990220E-1,-8.848969825E-3,9.133400768E-2,9.743156433E0,9.743588532E0
9.232990220E-1,-3.007117193E-3,8.780016005E-2,9.739498138E0,9.739894347E0
9.252990220E-1,4.434061702E-3,8.344271779E-2,9.743185043E0,9.743543356E0
9.272990220E-1,1.541865990E-3,8.290641755E-2,9.740924835E0,9.741277765E0
9.292990220E-1,-4.443638492E-3,8.655518293E-2,9.741116524E0,9.741502075E0
9.312990220E-1,-1.963245450E-3,8.420886099E-2,9.743807793E0,9.744171863E0
9.332990220E-1,-3.897760296E-3,8.024406433E-2,9.744276047E0,9.744607225E0
9.352990220E-1,-5.066130776E-3,8.282022923E-2,9.743567467E0,9.743920763E0
9.372990220E-1,-1.432690304E-2,7.796478271E-2,9.745808601E0,9.746130979E0
9.392990220E-1,-1.465251483E-2,7.185478508E-2,9.750606537E0,9.750882301E0
9.412990220E-1,-1.518881507E-2,7.632714510E-2,9.751622200E0,9.751932735E0
9.432990220E-1,-1.584961452E-2,8.509950340E-2,9.753643036E0,9.754027148E0
9.452990220E-1,-1.436521020E-2,8.947610110E-2,9.754274368E0,9.754695320E0
9.472990220E-1,-1.060152519E-2,8.425674587E-2,9.751947403E0,9.752317147E0
9.492990220E-1,1.493981807E-3,9.033802152E-2,9.753776550E0,9.754195004E0
9.512990220E-1,-5.784391426E-3,9.617029876E-2,9.749524117E0,9.750000138E0
9.534755840E-1,-1.477701310E-2,8.795338869E-2,9.744449615E0,9.744857745E0
9.552990220E-1,-2.005383372E-2,8.036856353E-2,9.742121696E0,9.742473834E0
9.572990220E-1,-2.040817402E-2,9.571061283E-2,9.742983818E0,9.743475288E0
9.592990220E-1,-1.108994242E-2,1.009299681E-1,9.747637749E0,9.748166573E0
9.612990220E-1,-1.204762235E-2,9.451350570E-2,9.749514580E0,9.749980128E0
9.632990220E-1,-1.894292422E-2,9.549991786E-2,9.746354103E0,9.746840379E0
9.652990220E-1,-1.215296704E-2,9.246407449E-2,9.751535416E0,9.751981351E0
9.672990220E-1,-9.136273526E-3,9.140104800E-2,9.761237144E0,9.761669335E0
9.692990220E-1,-1.183693297E-2,9.152553976E-2,9.766073227E0,9.766509269E0
9.712990220E-1,-1.617522538E-2,8.780016005E-2,9.760154724E0,9.760563034E0
9.732990220E-1,-1.617522538E-2,8.598056436E-2,9.755547523E0,9.755939820E0
9.752990220E-1,-1.645295322E-2,9.206184745E-2,9.764407158E0,9.764855003E0
9.772990220E-1,-1.528458390E-2,9.174580872E-2,9.768122673E0,9.768565476E0
9.792990220E-1,-1.681687310E-2,9.104669839E-2,9.771685600E0,9.772124220E0
9.812990220E-1,-2.002510242E-2,8.338525146E-2,9.769051552E0,9.769427943E0
9.832990220E-1,-1.858858019E-2,8.217857778E-2,9.758028030E0,9.758391768E0
9.852990220E-1,-1.202846877E-2,8.368213475E-2,9.745473862E0,9.745840558E0
9.872990220E-1,-1.214339025E-2,8.603803068E-2,9.733473778E0,9.733861607E0
9.892990220E-1,-1.618480310E-2,8.269572258E-2,9.733636856E0,9.734001591E0
9.912990220E-1,-1.262223162E-2,8.271488547E-2,9.732707977E0,9.733067638E0
9.932990220E-1,-1.494939532E-2,8.245630562E-2,9.739918709E0,9.740279204E0
9.952990220E-1,-8.935160935E-3,8.992621303E-2,9.743567467E0,9.743986532E0
9.972990220E-1,1.618480310E-3,7.958326489E-2,9.743816376E0,9.744141506E0
9.992990220E-1,-6.703764666E-5,7.507258654E-2,9.753288269E0,9.753577188E0
1.001299022E0,-5.401318893E-3,7.252515107E-2,9.758124352E0,9.758395356E0
1.003299022E0,-1.014183834E-2,8.221688867E-2,9.760863304E0,9.761214828E0
1.005299022E0,-1.208592951E-2,8.621041477E-2,9.762002945E0,9.762391090E0
1.007299022E0,-1.304361038E-2,9.391974658E-2,9.758181572E0,9.758642254E0
1.009299022E0,-1.292868890E-2,9.151596576E-2,9.760442734E0,9.760880323E0
1.011299022E0,-1.165497396E-2,8.772354573E-2,9.760633469E0,9.761034626E0
1.013299022E0,-6.895300932E-3,8.328948915E-2,9.760806084E0,9.761163870E0
1.015299022E0,-1.671152934E-2,8.095274866E-2,9.763124466E0,9.763474380E0
1.017299022E0,-1.477701310E-2,7.668149471E-2,9.758555412E0,9.758867872E0
1.019299022E0,-1.158793643E-2,7.700709999E-2,9.749773026E0,9.750084021E0
1.021299022E0,-1.776497625E-2,7.920019329E-2,9.743050575E0,9.743388670E0
1.023299022E0,-1.400129125E-2,8.322244883E-2,9.743922234E0,9.744287686E0
1.025299022E0,-1.456632372E-2,8.105809242E-2,9.744008064E0,9.744356097E0
1.027299022E0,-1.145386137E-2,8.724471182E-2,9.746402740E0,9.746799947E0
1.029299022E0,-2.671929076E-3,8.383536339E-2,9.743855476E0,9.744216492E0
1.031299022E0,-1.407790580E-3,8.272445947E-2,9.735705376E0,9.736056927E0
1.033475584E0,-3.485957626E-3,8.199661970E-2,9.730035782E0,9.730381900E0
1.035299022E0,-7.460332476E-3,7.767748088E-2,9.741211891E0,9.741524447E0
1.037299022E0,-1.106121205E-2,7.890331000E-2,9.739439964E0,9.739765855E0
1.039299022E0,-1.298614964E-2,8.450574428E-2,9.727315903E0,9.727691634E0
1.041299022E0,-1.045787334E-2,8.850885183E-2,9.731520653E0,9.731928760E0
1.043299022E0,-5.487510003E-3,8.296387643E-2,9.739861488E0,9.740216370E0
1.045299022E0,-1.359906513E-3,7.962157577E-2,9.744276047E0,9.744601435E0
1.047299022E0,-3.351882566E-3,8.437166363E-2,9.751622200E0,9.751987764E0
1.049299022E0,-1.914403774E-2,8.454405516E-2,9.755864143E0,9.756249247E0
1.051299022E0,-2.221819200E-2,7.987056673E-2,9.754667282E0,9.755019566E0
1.053299022E0,-1.858858019E-2,8.373001963E-2,9.758220673E0,9.758597591E0
1.055299022E0,-2.729390003E-2,8.164227754E-2,9.761658669E0,9.762038229E0
1.057299022E0,-1.455674693E-2,8.566453308E-2,9.756257057E0,9.756643997E0
1.059299022E0,-4.625597503E-3,8.537723869E-2,9.751430511E0,9.751805355E0
1.061299022E0,-7.891288958E-3,8.439082652E-2,9.750520706E0,9.750889094E0
1.063299022E0,-1.316810865E-2,8.251377195E-2,9.747426987E0,9.747785122E0
1.065299022E0,-1.930684224E-2,8.126877993E-2,9.746957779E0,9.747315698E0
1.067299022E0,-2.081997879E-2,7.986099273E-2,9.745808601E0,9.746158040E0
1.069299022E0,-1.037168223E-2,8.779058605E-2,9.742532730E0,9.742933786E0
1.071299022E0,-1.153047569E-2,8.382578939E-2,9.742044449E0,9.742411907E0
1.073299022E0,-1.093671285E-2,8.291599154E-2,9.746028900E0,9.746387741E0
1.075299022E0,-5.133168306E-3,8.123047650E-2,9.753806114E0,9.754145706E0
1.077299022E0,-6.406883709E-3,7.361691445E-2,9.763152122E0,9.763431767E0
1.079299022E0,-5.880159326E-3,8.227434754E-2,9.771665573E0,9.772013698E0
1.081299022E0,-7.651868742E-3,8.696697652E-2,9.785638809E0,9.786028240E0
1.083299022E0,-5.889736116E-3,7.738059759E-2,9.811352730E0,9.811659637E0
1.085299022E0,9.931148961E-3,7.211335748E-2,9.824395180E0,9.824664860E0
1.087299022E0,1.433647983E-2,8.101020753E-2,9.814952850E0,9.815297634E0
1.089299022E0,4.826710559E-3,8.074206114E-2,9.783359528E0,9.783693895E0
1.091299022E0,4.031835590E-3,1.013130397E-1,9.758249283E0,9.758776033E0
1.093299022E0,-1.398213790E-3,8.997409791E-2,9.740321159E0,9.740736809E0
1.095299022E0,-6.703765132E-3,1.011693850E-1,9.730371475E0,9.730899713E0
1.097299022E0,-1.766920835E-2,9.742485732E-2,9.733752251E0,9.734255836E0
1.099299022E0,-1.365652680E-2,8.727343380E-2,9.729921341E0,9.730322320E0
1.101299022E0,-1.552400365E-2,9.487742931E-2,9.723140717E0,9.723616000E0
1.103299022E0,-2.010171674E-2,9.383355081E-2,9.724673271E0,9.725146736E0
1.105299022E0,-1.765005477E-2,9.022309631E-2,9.737247467E0,9.737681447E0
1.107299022E0,-9.519346058E-3,8.579861373E-2,9.737687111E0,9.738069741E0
1.109444334E0,-7.469909033E-4,8.389282972E-2,9.736165047E0,9.736526505E0
1.111299022E0,1.053448766E-3,8.672755957E-2,9.735657692E0,9.736044036E0
1.113475584E0,-4.855440930E-3,7.463205606E-2,9.739191055E0,9.739478217E0
1.115299022E0,1.857900526E-3,7.865431160E-2,9.744065285E0,9.744382906E0
1.117299022E0,8.619126165E-4,8.314583451E-2,9.750414848E0,9.750769389E0
1.119299022E0,-1.206677640E-3,7.749552280E-2,9.749381065E0,9.749689132E0
1.121299022E0,-3.198653460E-3,7.558016479E-2,9.750271797E0,9.750565251E0
1.123299022E0,2.681505866E-3,8.115386218E-2,9.749974251E0,9.750312356E0
1.125299022E0,-3.830722562E-5,8.391197771E-2,9.746708870E0,9.747070073E0
1.127299022E0,-5.746083916E-4,8.046433330E-2,9.745838165E0,9.746170344E0
1.129299022E0,-5.209783092E-3,8.721598238E-2,9.740675926E0,9.741067768E0
1.131299022E0,-1.848323736E-3,9.418790042E-2,9.746862411E0,9.747317664E0
1.133477147E0,1.819593366E-3,8.503247052E-2,9.754600525E0,9.754971309E0
1.135733397E0,-6.952761672E-3,8.611464500E-2,9.756716728E0,9.757099230E0
1.137681834E0,-1.798524335E-2,8.570284396E-2,9.759675980E0,9.760068835E0
1.139299022E0,-2.110728249E-2,7.760086656E-2,9.754312515E0,9.754644025E0
1.141299022E0,-2.200750075E-2,8.103893697E-2,9.758067131E0,9.758428448E0
1.143299022E0,-2.281195484E-2,8.129751682E-2,9.751104355E0,9.751469931E0
1.145299022E0,-1.768836193E-2,7.467994094E-2,9.744218826E0,9.744521051E0
1.147299022E0,-1.982399076E-2,7.562804222E-2,9.745329857E0,9.745643468E0
1.149299022E0,-1.726698317E-2,8.208280802E-2,9.756122589E0,9.756483163E0
1.151299022E0,-8.657433093E-3,8.225519210E-2,9.758133888E0,9.758484403E0
1.153299022E0,-1.857900433E-2,8.553046733E-2,9.758880615E0,9.759273103E0
1.155299022E0,-2.127966471E-2,9.314402193E-2,9.760078430E0,9.760546071E0
1.157299022E0,-9.969456121E-3,9.662041068E-2,9.756630898E0,9.757114397E0
1.159299022E0,-1.280419063E-2,9.329725057E-2,9.759178162E0,9.759632509E0
1.161299022E0,-1.146343816E-2,8.608591557E-2,9.755184174E0,9.755570740E0
1.163299022E0,-9.193734732E-4,9.035716951E-2,9.749974251E0,9.750392974E0
1.165299022E0,1.484405017E-3,9.005071223E-2,9.752876282E0,9.753292116E0
1.167299022E0,2.719813026E-3,9.198523313E-2,9.753413200E0,9.753847330E0
1.169299022E0,2.355894540E-3,9.632352740E-2,9.752340317E0,9.752816282E0
1.171299022E0,6.339846179E-3,1.092905179E-1,9.752636909E0,9.753251319E0
1.173299022E0,-4.730942659E-3,1.037838534E-1,9.750261307E0,9.750814788E0
1.175299022E0,-1.068771631E-2,8.997409791E-2,9.753833771E0,9.754254600E0
1.177299022E0,-1.030464470E-2,8.644026518E-2,9.766226768E0,9.766614736E0
1.179299022E0,-4.884171300E-3,8.782889694E-2,9.776483536E0,9.776879262E0
1.181299022E0,-6.378153339E-3,9.804734588E-2,9.787696838E0,9.788189994E0
1.183299022E0,-2.806004370E-3,8.848011494E-2,9.778780937E0,9.779181623E0
1.185299022E0,-9.394847788E-3,7.938215137E-2,9.763995171E0,9.764322377E0
1.187299022E0,-1.672110520E-2,7.169197500E-2,9.748356819E0,9.748634777E0
1.189299022E0,-2.773443237E-2,7.691133767E-2,9.737505913E0,9.737849144E0
1.191299022E0,-3.186203539E-2,7.771579176E-2,9.731289864E0,9.731652344E0
1.193475584E0,-3.424666077E-2,8.391197771E-2,9.725314140E0,9.725736434E0
1.195299022E0,-2.730347589E-2,8.588480204E-2,9.723197937E0,9.723615572E0
1.197299022E0,-1.924938150E-2,8.762778342E-2,9.720210075E0,9.720624109E0
1.199299022E0,-1.579215378E-2,8.641152829E-2,9.727181435E0,9.727578065E0
1.201299022E0,-8.686163463E-3,7.840532064E-2,9.729365349E0,9.729685141E0
1.203299022E0,-1.209550630E-2,7.951622456E-2,9.737707138E0,9.738039302E0
1.205299022E0,-1.739148051E-2,8.275318891E-2,9.745090485E0,9.745457358E0
1.207299022E0,-1.552400365E-2,7.734229416E-2,9.747264862E0,9.747584066E0
1.209299022E0,-1.393425371E-2,8.319371939E-2,9.753537178E0,9.753901929E0
1.211299022E0,-1.356075890E-2,8.670841157E-2,9.755558014E0,9.755952768E0
1.213299022E0,-7.469909266E-3,8.318414539E-2,9.752578735E0,9.752936347E0
1.215299022E0,-4.098873120E-3,8.223603666E-2,9.750817299E0,9.751164934E0
1.217299022E0,-3.007117193E-3,8.168058842E-2,9.748978615E0,9.749321248E0
1.219299022E0,-3.313575173E-3,8.414182067E-2,9.744256973E0,9.744620813E0
1.221299022E0,-7.307103835E-3,8.326075971E-2,9.743481636E0,9.743840113E0
1.223299022E0,-4.414908122E-3,8.696697652E-2,9.741116524E0,9.741505729E0
1.225299022E0,-7.211335469E-3,8.843223751E-2,9.738061905E0,9.738466097E0
1.227299022E0,-4.596867366E-4,8.282980323E-2,9.736222267E0,9.736574604E0
1.229299022E0,6.789956242E-3,8.393114060E-2,9.737266541E0,9.737630627E0
1.231299022E0,4.989516456E-3,7.907569408E-2,9.742897034E0,9.743219205E0
1.233299022E0,-6.952761672E-3,7.504386455E-2,9.731817245E0,9.732109063E0
1.235299022E0,-4.778826609E-3,7.762001455E-2,9.730725288E0,9.731036036E0
1.237299022E0,-5.248090252E-3,8.561665565E-2,9.735321999E0,9.735699881E0
1.239299022E0,-2.671929076E-3,9.336429089E-2,9.736270905E0,9.736718911E0
1.241299022E0,-1.015141490E-3,9.297163785E-2,9.737745285E0,9.738189154E0
1.243299022E0,1.244984887E-4,9.138189256E-2,9.744410515E0,9.744838990E0
1.245299022E0,5.363011733E-4,8.371087164E-2,9.751909256E0,9.752268553E0
1.247299022E0,-6.780379452E-3,8.357679099E-2,9.754457474E0,9.754817869E0
1.249299022E0,-8.245630190E-3,8.651687950E-2,9.757176399E0,9.757563448E0
1.251299022E0,-1.857900526E-3,8.376832306E-2,9.757808685E0,9.758168420E0
1.253299022E0,-1.465251436E-3,7.865431160E-2,9.752120018E0,9.752437310E0
1.255299022E0,-3.916914109E-3,7.471824437E-2,9.744429588E0,9.744716833E0
1.257299022E0,-1.144428458E-2,7.932469249E-2,9.749639511E0,9.749968922E0
1.259299022E0,-1.388636976E-2,8.201576769E-2,9.749917030E0,9.750271869E0
1.261299022E0,-1.659660600E-2,7.887458056E-2,9.751008987E0,9.751342109E0
1.263299022E0,-1.739148051E-2,8.286811411E-2,9.753383636E0,9.753751173E0
1.265299022E0,-1.372356433E-2,8.717767149E-2,9.751343727E0,9.751743063E0
1.267299022E0,-5.688623525E-3,8.965806663E-2,9.751276970E0,9.751690801E0
1.269299022E0,-7.757213432E-3,9.091262519E-2,9.755634308E0,9.756060989E0
1.271299022E0,-1.090798248E-2,9.155427665E-2,9.756171227E0,9.756606898E0
1.273475584E0,-1.455674693E-2,9.273222089E-2,9.756410599E0,9.756862146E0
1.275299022E0,-2.542642131E-2,8.958145231E-2,9.757779121E0,9.758223441E0
1.277299022E0,-3.323151916E-2,8.587522805E-2,9.754505157E0,9.754939762E0
1.279299022E0,-2.773443237E-2,8.587522805E-2,9.757683754E0,9.758101045E0
1.281299022E0,-2.426762693E-2,8.331821859E-2,9.759446144E0,9.759831960E0
1.283299022E0,-2.087743953E-2,8.399816602E-2,9.753028870E0,9.753412925E0
1.285299022E0,-2.031240612E-2,8.378748596E-2,9.748490334E0,9.748871561E0
1.287299022E0,-2.342486940E-2,8.316498995E-2,9.757856369E0,9.758238881E0
1.289299022E0,-1.351287495E-2,7.965029776E-2,9.758172989E0,9.758507409E0
1.291299022E0,-1.170285791E-2,8.299260587E-2,9.758229256E0,9.758589188E0
1.293299022E0,-2.509123413E-3,8.694782853E-2,9.752205849E0,9.752593765E0
1.295299022E0,-7.192181889E-3,7.953538001E-2,9.747954369E0,9.748281488E0
1.297299022E0,-1.715206169E-2,7.343494892E-2,9.750108719E0,9.750400346E0
1.299299022E0,-1.235408150E-2,7.481402159E-2,9.752646446E0,9.752941221E0
1.301299022E0,-4.941632040E-3,8.574114740E-2,9.749514580E0,9.749892846E0
1.303299022E0,-4.050989170E-3,9.317275137E-2,9.748854637E0,9.749300709E0
1.305299022E0,-2.116474323E-3,9.132443368E-2,9.755529404E0,9.755957082E0
1.307299022E0,-5.487510003E-3,9.104669839E-2,9.748930931E0,9.749357615E0
1.309299022E0,-4.424484912E-3,9.155427665E-2,9.747714996E0,9.748145947E0
1.311299022E0,-6.291962229E-3,8.730217069E-2,9.751400948E0,9.751793768E0
1.313299022E0,-1.003649365E-2,8.402690291E-2,9.760853767E0,9.761220596E0
1.315299022E0,-1.506431680E-2,8.138370514E-2,9.760892868E0,9.761243764E0
1.317299022E0,-1.075475384E-2,7.495766133E-2,9.761801720E0,9.762095427E0
1.319299022E0,2.221819246E-3,7.774451375E-2,9.757894516E0,9.758204473E0
1.321299022E0,-7.182605332E-4,8.383536339E-2,9.754973412E0,9.755333677E0
1.323299022E0,-3.457227256E-3,7.915230840E-2,9.750520706E0,9.750842583E0
1.325299022E0,-5.564124789E-3,7.087794691E-2,9.748126030E0,9.748385289E0
1.327300584E0,-9.548076428E-3,6.869443506E-2,9.745282173E0,9.745528961E0
1.329299022E0,-1.284249779E-2,7.712202519E-2,9.744410515E0,9.744724163E0
1.331299022E0,-1.110909600E-2,7.200801373E-2,9.740379333E0,9.740651833E0
1.333299022E0,-1.394383051E-2,7.131848484E-2,9.746374130E0,9.746645035E0
1.335299022E0,-2.109770663E-2,7.318595797E-2,9.748682022E0,9.748979560E0
1.337444334E0,-2.632664144E-2,7.301357388E-2,9.745702744E0,9.746011802E0
1.339299022E0,-1.982399076E-2,7.503427565E-2,9.745310783E0,9.745619806E0
1.341299022E0,-1.676899008E-2,8.276276290E-2,9.739755630E0,9.740121694E0
1.343299022E0,-1.594538242E-2,7.941088080E-2,9.739899635E0,9.740236406E0
1.345299022E0,-1.319683902E-2,7.077260315E-2,9.742034912E0,9.742300916E0
1.347299022E0,-8.753201924E-3,8.103893697E-2,9.736472130E0,9.736813311E0
1.349299022E0,-7.278373465E-3,8.176677674E-2,9.740465164E0,9.740811075E0
1.351299022E0,-1.412578952E-2,7.364564389E-2,9.739891052E0,9.740179717E0
1.353475584E0,-1.195185445E-2,7.431601733E-2,9.736557961E0,9.736848907E0
1.355299022E0,-4.635174293E-3,8.467812091E-2,9.732151985E0,9.732521468E0
1.357299022E0,-6.943184882E-3,9.259814769E-2,9.732066154E0,9.732509145E0
1.359299022E0,-9.385270998E-3,8.973468095E-2,9.731730461E0,9.732148692E0
1.361299022E0,-2.576161176E-3,9.061574191E-2,9.736940384E0,9.737362368E0
1.363299022E0,-4.405330983E-4,8.599972725E-2,9.736231804E0,9.736611622E0
1.365299022E0,-1.819593308E-4,9.133400768E-2,9.741345406E0,9.741773568E0
1.367299022E0,-2.221819246E-3,8.631575853E-2,9.750319481E0,9.750701786E0
1.369299022E0,-2.614468336E-3,9.222465008E-2,9.748165131E0,9.748601727E0
1.371299022E0,2.729389817E-3,8.953356743E-2,9.747714996E0,9.748126556E0
1.373299022E0,-4.836287349E-3,7.822335511E-2,9.747838974E0,9.748154028E0
1.375299022E0,-5.640739575E-3,7.655698806E-2,9.746326447E0,9.746628750E0
1.377299022E0,-7.709329482E-3,7.212293148E-2,9.747800827E0,9.748070687E0
1.379299022E0,-9.758765809E-3,7.329130918E-2,9.754256248E0,9.754536473E0
1.381299022E0,-9.557653219E-3,7.664319128E-2,9.747829437E0,9.748135425E0
1.383299022E0,-7.144297939E-3,7.483316958E-2,9.744716644E0,9.745006594E0
1.385299022E0,-6.837840192E-3,6.157886982E-2,9.739000320E0,9.739197398E0
1.387299022E0,-9.624690749E-3,6.257485598E-2,9.743586540E0,9.743792224E0
1.389299022E0,-1.084094495E-2,7.904696465E-2,9.753413200E0,9.753739540E0
1.391299022E0,-1.907699928E-2,9.931148589E-2,9.762070656E0,9.762594440E0
1.393299022E0,-1.380975544E-2,9.633310139E-2,9.772853851E0,9.773338384E0
1.395299022E0,-1.357991248E-2,6.508397311E-2,9.773389816E0,9.773615955E0
1.397299022E0,-6.426037289E-3,8.325118572E-2,9.768965721E0,9.769322562E0
1.399299022E0,6.416460383E-4,6.915412098E-2,9.756008148E0,9.756253261E0
1.401299022E0,3.361459356E-3,8.681374788E-2,9.741949081E0,9.742336467E0
1.403300584E0,5.621585529E-3,8.156566322E-2,9.729948997E0,9.730292496E0
1.405299022E0,4.750096239E-3,8.519527316E-2,9.724949837E0,9.725324166E0
1.407299022E0,-6.253655069E-3,8.029194921E-2,9.729010582E0,9.729343904E0
1.409299022E0,-1.520796958E-2,7.648037374E-2,9.741614342E0,9.741926427E0
1.411299022E0,-1.703714021E-2,7.117483020E-2,9.749361038E0,9.749635725E0
1.413299022E0,-2.758120373E-2,6.246950850E-2,9.745751381E0,9.745990619E0
1.415299022E0,-2.814623527E-2,6.511271000E-2,9.742140770E0,9.742399020E0
1.417300584E0,-2.597229928E-2,7.177817076E-2,9.742925644E0,9.743224660E0
1.419299022E0,-3.442861885E-2,7.147171348E-2,9.749227524E0,9.749550289E0
1.421299022E0,-2.740882151E-2,7.541734725E-2,9.758276939E0,9.758606860E0
1.423299022E0,-2.911349386E-2,7.861600816E-2,9.777986526E0,9.778345902E0
1.425299022E0,-2.273534052E-2,7.919061184E-2,9.797150612E0,9.797497035E0
1.427299022E0,-2.505292743E-2,8.018659800E-2,9.806276321E0,9.806636163E0
1.429299022E0,-2.742797509E-2,8.397901803E-2,9.802053452E0,9.802451563E0
1.431299022E0,-2.480393089E-2,7.984183729E-2,9.792323112E0,9.792680016E0
1.433475584E0,-2.551261336E-2,7.521624118E-2,9.761256218E0,9.761579346E0
1.435299022E0,-2.635537088E-2,7.844362408E-2,9.733636856E0,9.733988620E0
1.437299022E0,-1.358948927E-2,9.023267031E-2,9.711226463E0,9.711655164E0
1.439299022E0,-1.164539717E-2,1.010640413E-1,9.709856987E0,9.710389913E0
1.441299022E0,-5.889736116E-3,1.079497710E-1,9.718706131E0,9.719307419E0
1.443299022E0,-1.068771631E-2,1.024718359E-1,9.737735748E0,9.738280762E0
1.445299022E0,-1.248815656E-2,9.443689138E-2,9.761811256E0,9.762276030E0
1.447299022E0,-1.765005477E-2,8.572199941E-2,9.775592804E0,9.775984577E0
1.449299022E0,-1.941218786E-2,8.417055756E-2,9.789086342E0,9.789467448E0
1.451299022E0,-2.153823897E-2,9.193734825E-2,9.805759430E0,9.806214069E0
1.453299022E0,-2.282153070E-2,9.120950848E-2,9.803394318E0,9.803845171E0
1.455299022E0,-2.744712867E-2,9.244491905E-2,9.792572021E0,9.793046829E0
1.457299022E0,-2.835692465E-2,9.094136208E-2,9.793137550E0,9.793600846E0
1.459299022E0,-2.003468014E-2,9.169792384E-2,9.781492233E0,9.781942558E0
1.461299022E0,-4.817133769E-3,9.162130952E-2,9.767127037E0,9.767557946E0
1.463299022E0,-1.144428458E-2,8.677544445E-2,9.750271797E0,9.750664648E0
1.465299022E0,-5.468356423E-3,8.716809750E-2,9.731271744E0,9.731663677E0
1.467299022E0,-4.750096239E-3,8.828858286E-2,9.718208313E0,9.718610510E0
1.469299022E0,-1.172201149E-2,9.398677945E-2,9.717020035E0,9.717481632E0
1.471299022E0,-1.234450471E-2,9.238746017E-2,9.728350639E0,9.728797150E0
1.473299022E0,-8.686163463E-3,8.367256075E-2,9.741910934E0,9.742274129E0
1.475299022E0,-1.346499100E-2,8.405563235E-2,9.752178192E0,9.752549725E0
1.477299022E0,-2.056140266E-2,8.661264181E-2,9.765987396E0,9.766393108E0
1.479299022E0,-8.714893833E-3,8.662221581E-2,9.775784492E0,9.776172145E0
1.481299022E0,-1.800439670E-3,8.369170874E-2,9.784153938E0,9.784512039E0
1.483477147E0,-1.039083581E-2,8.039729297E-2,9.784326553E0,9.784662375E0
1.485299022E0,-9.461885318E-3,8.506119251E-2,9.780964851E0,9.781339293E0
1.487299022E0,-1.291911211E-2,8.602845669E-2,9.762481689E0,9.762869278E0
1.489299022E0,-5.631162319E-3,8.967721462E-2,9.745023727E0,9.745437967E0
1.491299022E0,-2.087743953E-3,9.707050771E-2,9.729498863E0,9.729983308E0
1.493299022E0,-8.044517599E-4,9.879434109E-2,9.716771126E0,9.717273387E0
1.495299022E0,4.003105219E-3,9.893798828E-2,9.705250740E0,9.705755853E0
1.497300584E0,-5.324704573E-3,8.881530911E-2,9.699859619E0,9.700267684E0
1.499299022E0,-5.889736116E-3,8.195831627E-2,9.713410378E0,9.713757925E0
1.501299022E0,-3.581725759E-3,7.079175860E-2,9.742245674E0,9.742503532E0
1.503299022E0,3.505111206E-3,7.099286467E-2,9.770066261E0,9.770324817E0
1.505299022E0,-9.308655746E-3,6.602250785E-2,9.789996147E0,9.790223194E0
1.507299022E0,-1.109951921E-2,6.328354031E-2,9.793089867E0,9.793300626E0
1.509299022E0,-8.724471554E-3,6.560112536E-2,9.786596298E0,9.786820052E0
1.511299022E0,-1.167412754E-2,5.915593728E-2,9.770105362E0,9.770291423E0
1.513475584E0,-9.452308528E-3,5.954858288E-2,9.755414009E0,9.755600334E0
1.515299022E0,-4.510676023E-3,6.771759689E-2,9.743472099E0,9.743708461E0
1.517299022E0,8.092401549E-3,7.399998605E-2,9.736059189E0,9.736343770E0
1.519299022E0,1.178904902E-2,8.383536339E-2,9.725860596E0,9.726229057E0
1.521299022E0,1.285207458E-2,7.761044055E-2,9.713343620E0,9.713662175E0
1.523299022E0,1.389594655E-2,6.997773051E-2,9.713688850E0,9.713950847E0
1.525299022E0,1.117613353E-2,7.592492551E-2,9.725372314E0,9.725675100E0
1.527299022E0,8.341399021E-3,8.044517785E-2,9.732889175E0,9.733225196E0
1.529299022E0,1.048660371E-2,7.901823521E-2,9.743662834E0,9.743988879E0
1.531299022E0,1.246900298E-2,7.248684764E-2,9.751047134E0,9.751324527E0
1.533299022E0,8.619125932E-3,7.675810903E-2,9.757243156E0,9.757548878E0
1.535299022E0,1.915361281E-5,7.499597222E-2,9.755644798E0,9.755933058E0
1.537299022E0,-2.892195713E-3,8.235096186E-2,9.758593559E0,9.758941454E0
1.539299022E0,-3.801992396E-3,8.347144723E-2,9.758574486E0,9.758932213E0
1.541299022E0,-3.639186732E-3,8.928456903E-2,9.756621361E0,9.757030560E0
1.543299022E0,-7.211335469E-3,8.114428818E-2,9.741221428E0,9.741562057E0
1.545299022E0,-1.076433063E-2,7.609730214E-2,9.733483315E0,9.733786730E0
1.547299022E0,-8.140285499E-3,7.988014072E-2,9.723131180E0,9.723462708E0
1.549299022E0,-1.124317106E-2,7.902780920E-2,9.719635963E0,9.719963738E0
1.551299022E0,-1.798524335E-2,7.741890848E-2,9.731778145E0,9.732102703E0
1.553299022E0,-1.721909828E-2,8.355764300E-2,9.740445137E0,9.740818746E0
1.555299022E0,-1.143470779E-2,9.082643688E-2,9.747129440E0,9.747559311E0
1.557299022E0,-6.138733588E-3,9.333555400E-2,9.750261307E0,9.750709962E0
1.559299022E0,1.541865990E-3,9.060616791E-2,9.753776550E0,9.754197499E0
1.561299022E0,2.700659446E-3,8.019617945E-2,9.755577087E0,9.755907084E0
1.563444334E0,-2.413355280E-3,7.783070952E-2,9.753240585E0,9.753551423E0
1.565299022E0,-3.945644479E-3,8.359594643E-2,9.740235329E0,9.740594854E0
1.567299022E0,-4.616020713E-3,8.510908484E-2,9.731549263E0,9.731922519E0
1.569299022E0,-6.272808649E-3,8.656475693E-2,9.727708817E0,9.728095992E0
1.571299022E0,-9.481038898E-3,9.117120504E-2,9.726453781E0,9.726885690E0
1.573299022E0,-8.944737725E-3,8.967721462E-2,9.724452019E0,9.724869617E0
1.575299022E0,-1.577300020E-2,9.469546378E-2,9.725218773E0,9.725692582E0
1.577299022E0,-1.623268612E-2,9.453266114E-2,9.734910011E0,9.735382522E0
1.579299022E0,-1.747767255E-2,9.065405279E-2,9.747934341E0,9.748371533E0
1.581300584E0,-1.389594655E-2,8.978256583E-2,9.760671616E0,9.761094426E0
1.583300584E0,-2.143289335E-2,8.870038390E-2,9.770306587E0,9.770732723E0
1.585299022E0,-1.932599582E-2,8.420886099E-2,9.766983032E0,9.767365160E0
1.587299022E0,-1.316810865E-2,8.389282972E-2,9.764415741E0,9.764785004E0
1.589299022E0,-5.621585529E-3,8.831731230E-2,9.755692482E0,9.756093857E0
1.591299022E0,-1.011310797E-2,8.669883013E-2,9.754858017E0,9.755248531E0
1.593475584E0,-1.277546026E-2,8.758947998E-2,9.746191025E0,9.746592975E0
1.595299022E0,-8.772355504E-3,8.902599663E-2,9.732190132E0,9.732601263E0
1.597299022E0,-5.401318893E-3,8.039729297E-2,9.728024483E0,9.728358198E0
1.599299022E0,-6.272808649E-3,8.335652947E-2,9.728426933E0,9.728786063E0
1.601299022E0,-6.081271917E-3,9.089346975E-2,9.733387947E0,9.733814234E0
1.603299022E0,-7.029375993E-3,8.389282972E-2,9.737342834E0,9.737706757E0
1.605299022E0,-6.177040748E-3,8.403647691E-2,9.744218826E0,9.744583153E0
1.607299022E0,-1.443224773E-2,8.771397173E-2,9.749485970E0,9.749891215E0
1.609299022E0,-1.572511718E-2,8.455362916E-2,9.761054993E0,9.761433868E0
1.611299022E0,-8.121131919E-3,8.092401922E-2,9.766149521E0,9.766488167E0
1.613299022E0,-1.414494310E-2,7.980352640E-2,9.766437531E0,9.766773813E0
1.615299022E0,-1.949837804E-2,8.392155170E-2,9.764397621E0,9.764777720E0
1.617299022E0,-1.048660371E-2,8.108682185E-2,9.760700226E0,9.761042667E0
1.619299022E0,-8.686163463E-3,7.973649353E-2,9.758249283E0,9.758578914E0
1.621299022E0,-1.124317106E-2,7.889373600E-2,9.746929169E0,9.747254939E0
1.623299022E0,-1.097502001E-2,7.564719021E-2,9.739459038E0,9.739758996E0
1.625299022E0,-1.213381346E-2,7.082048804E-2,9.728054047E0,9.728319398E0
1.627299022E0,-1.212423667E-2,7.028418779E-2,9.726521492E0,9.726782983E0
1.629299022E0,-1.017056871E-2,7.414364070E-2,9.733214378E0,9.733502086E0
1.631299022E0,-9.251195006E-3,7.969819009E-2,9.747723579E0,9.748053773E0
1.633447459E0,-1.176031865E-2,7.716032863E-2,9.760825157E0,9.761137217E0
1.635583397E0,-1.436521020E-2,7.754340023E-2,9.770977020E0,9.771295271E0
1.637344334E0,-1.401086804E-2,7.591534406E-2,9.768926620E0,9.769231636E0
1.639299022E0,-1.465251483E-2,6.988196075E-2,9.764081001E0,9.764342066E0
1.641299022E0,-1.168370433E-2,7.041826099E-2,9.763669968E0,9.763930893E0
1.643299022E0,-1.013226155E-2,6.757394969E-2,9.765039444E0,9.765278503E0
1.645299022E0,-4.596867133E-3,7.148128748E-2,9.750137329E0,9.750400435E0
1.647299022E0,4.654327873E-3,7.557057589E-2,9.738175392E0,9.738469723E0
1.649299022E0,-7.038952783E-3,7.356902957E-2,9.729901314E0,9.730181988E0
1.651299022E0,-7.460332476E-3,7.340622693E-2,9.725860596E0,9.726140471E0
1.653299022E0,-1.168370480E-3,7.122270763E-2,9.726061821E0,9.726322665E0
1.655299022E0,-3.246537410E-3,7.655698806E-2,9.738109589E0,9.738411055E0
1.657299022E0,1.149216841E-4,8.747455478E-2,9.743385315E0,9.743777974E0
1.659300584E0,3.993528429E-3,8.622957021E-2,9.744746208E0,9.745128534E0
1.661299022E0,4.453215282E-3,9.086474776E-2,9.751640320E0,9.752064661E0
1.663299022E0,5.324704573E-3,8.242757618E-2,9.755547523E0,9.755897198E0
1.665299022E0,9.117119946E-3,7.897992432E-2,9.753116608E0,9.753440650E0
1.667299022E0,1.292868983E-3,7.951622456E-2,9.749447823E0,9.749772169E0
1.669299022E0,-4.596867133E-3,7.746678591E-2,9.750434875E0,9.750743689E0
1.671299022E0,-1.280419063E-2,7.763917744E-2,9.749734879E0,9.750052410E0
1.673475584E0,-1.229662076E-2,7.424898446E-2,9.741872787E0,9.742163493E0
1.675299022E0,-1.044829655E-2,8.384493738E-2,9.732267380E0,9.732634150E0
1.677299022E0,-1.072602347E-2,8.427590132E-2,9.724337578E0,9.724708674E0
1.679299022E0,-4.414908122E-3,8.784804493E-2,9.723676682E0,9.724074505E0
1.681299022E0,-5.564124789E-3,8.880573511E-2,9.725123405E0,9.725530457E0
1.683299022E0,-1.110909623E-3,9.768342227E-2,9.727861404E0,9.728351905E0
1.685299022E0,1.762132393E-3,1.027591377E-1,9.731999397E0,9.732542053E0
1.687299022E0,1.110909600E-2,1.027878672E-1,9.747322083E0,9.747870359E0
1.689299022E0,5.535394419E-3,1.006809697E-1,9.757406235E0,9.757927225E0
1.691299022E0,-1.838746946E-3,9.749189019E-2,9.760662079E0,9.761149126E0
1.693299022E0,4.577713553E-3,9.471461922E-2,9.759283066E0,9.759743735E0
1.695299022E0,4.472368862E-3,9.834422916E-2,9.758229256E0,9.758725828E0
1.697299022E0,-1.810016460E-3,9.286629409E-2,9.758009911E0,9.758451969E0
1.699299022E0,-2.681505866E-3,9.187030792E-2,9.753881454E0,9.754314470E0
1.701299022E0,-1.235408150E-2,8.662221581E-2,9.753843307E0,9.754235762E0
1.703299022E0,-2.480393043E-3,8.661264181E-2,9.750741005E0,9.751125989E0
1.705299022E0,-7.259219419E-3,8.395028859E-2,9.745224953E0,9.745589245E0
1.707299022E0,-6.349422969E-3,7.872135192E-2,9.735561371E0,9.735881705E0
1.709299022E0,-1.063025557E-2,8.025363833E-2,9.733454704E0,9.733791354E0
1.711299022E0,-8.781932294E-3,9.078813344E-2,9.739095688E0,9.739522803E0
1.713299022E0,-4.912901670E-3,8.836519718E-2,9.739287376E0,9.739689479E0
1.715299022E0,1.197100850E-3,8.636365086E-2,9.735906601E0,9.736289717E0
1.717299022E0,4.309563083E-4,8.057925105E-2,9.737093925E0,9.737427346E0
1.719299022E0,2.145204693E-3,7.560888678E-2,9.744497299E0,9.744790861E0
1.721299022E0,1.225831220E-3,7.391379774E-2,9.746967316E0,9.747247643E0
1.723299022E0,-4.395754542E-3,8.319371939E-2,9.749773026E0,9.750128951E0
1.725299022E0,-3.801992396E-3,8.888234943E-2,9.753690720E0,9.754096431E0
1.727299022E0,1.177947270E-3,9.138189256E-2,9.749265671E0,9.749694003E0
1.729299022E0,1.349372137E-2,9.337386489E-2,9.747360229E0,9.747816792E0
1.731299022E0,1.505474001E-2,9.386228025E-2,9.747217178E0,9.747680724E0
1.733299022E0,7.010222413E-3,9.121908247E-2,9.750452995E0,9.750882200E0
1.735299022E0,2.662352286E-3,9.338344634E-2,9.751075745E0,9.751523252E0
1.737299022E0,3.256114433E-4,9.355582297E-2,9.754111290E0,9.754559952E0
1.739299022E0,-2.078166930E-3,9.091262519E-2,9.755270958E0,9.755694793E0
1.741299022E0,-2.566584153E-3,8.880573511E-2,9.754792213E0,9.755196778E0
1.743299022E0,-9.097966366E-3,8.418970555E-2,9.757569313E0,9.757936748E0
1.745299022E0,-7.354987785E-3,8.707232773E-2,9.765555382E0,9.765946324E0
1.747299022E0,-6.512228400E-3,8.261910826E-2,9.771034241E0,9.771385698E0
1.749299022E0,-7.278373465E-3,7.856812328E-2,9.772777557E0,9.773096086E0
1.751299022E0,-1.146343816E-2,7.944919169E-2,9.766016006E0,9.766345899E0
1.753475584E0,-1.165497396E-2,7.699752599E-2,9.757041931E0,9.757352700E0
1.755299022E0,-9.538499638E-3,7.622180134E-2,9.747570992E0,9.747873665E0
1.757300584E0,-1.448013168E-2,7.898949832E-2,9.741393089E0,9.741724095E0
1.759299022E0,-1.897165552E-2,7.981310785E-2,9.745224953E0,9.745570247E0
1.761299022E0,-2.192131057E-2,7.683472335E-2,9.744017601E0,9.744345187E0
1.763299022E0,-2.352063730E-2,7.914273441E-2,9.747111320E0,9.747460997E0
1.765299022E0,-2.331952564E-2,7.635588199E-2,9.747178078E0,9.747505040E0
1.767299022E0,-1.739148051E-2,7.261135429E-2,9.749859810E0,9.750145701E0
1.769299022E0,-1.635718532E-2,7.857769728E-2,9.757147789E0,9.757477901E0
1.771299022E0,-1.164539717E-2,9.579680115E-2,9.758057594E0,9.758534760E0
1.773299022E0,-8.370129392E-3,9.619902819E-2,9.761275291E0,9.761752897E0
1.775299022E0,-1.380017865E-2,8.692867309E-2,9.762855530E0,9.763252283E0
1.777299022E0,-1.455674693E-2,8.626787364E-2,9.761064529E0,9.761456592E0
1.779299022E0,-1.199016161E-2,8.612421900E-2,9.758124352E0,9.758511772E0
1.781299022E0,-1.510262396E-2,8.864292502E-2,9.742935181E0,9.743350122E0
1.783299022E0,-2.301306650E-2,9.435070306E-2,9.738702774E0,9.739186998E0
1.785299022E0,-2.108812891E-2,9.354624897E-2,9.732449532E0,9.732921940E0
1.787299022E0,-1.337879989E-2,9.111373872E-2,9.730782509E0,9.731218266E0
1.789299022E0,-1.320641581E-2,9.163089097E-2,9.727076530E0,9.727517076E0
1.791444334E0,-1.579215378E-2,8.920795470E-2,9.721080780E0,9.721502918E0
1.793299022E0,-9.452308528E-3,8.717767149E-2,9.724902153E0,9.725297485E0
1.795299022E0,-8.686163463E-3,8.780974150E-2,9.736930847E0,9.737330657E0
1.797299022E0,-9.002198465E-3,8.086655289E-2,9.747829437E0,9.748169017E0
1.799299022E0,-1.262223162E-2,8.124962449E-2,9.756736755E0,9.757083219E0
1.801299022E0,-1.221042778E-2,8.482177556E-2,9.761658669E0,9.762034818E0
1.803299022E0,-1.138682384E-2,8.065586537E-2,9.761514664E0,9.761854514E0
1.805299022E0,-1.681687310E-2,8.077079058E-2,9.756410599E0,9.756759426E0
1.807299022E0,-1.474828273E-2,8.994536847E-2,9.746488571E0,9.746914750E0
1.809299022E0,-1.524627674E-2,8.316498995E-2,9.746995926E0,9.747362640E0
1.811300584E0,-1.155920606E-2,8.317457139E-2,9.744524956E0,9.744886774E0
1.813299022E0,-1.284249779E-2,8.577945828E-2,9.737017632E0,9.737403935E0
1.815299022E0,-9.739612229E-3,8.442912996E-2,9.735982895E0,9.736353838E0
1.817299022E0,-1.332133822E-2,8.470685780E-2,9.734450340E0,9.734827997E0
1.819299022E0,-1.543781254E-2,8.054094762E-2,9.743500710E0,9.743845814E0
1.821300584E0,-1.451843884E-2,7.995675504E-2,9.753144264E0,9.753482809E0
1.823299022E0,-1.627099328E-2,7.872135192E-2,9.756198883E0,9.756530041E0
1.825299022E0,-8.887276985E-3,7.716991007E-2,9.751420975E0,9.751730370E0
1.827299022E0,-1.465251436E-3,7.486189902E-2,9.749553680E0,9.749841200E0
1.829299022E0,9.193734732E-4,8.095274866E-2,9.743941307E0,9.744277623E0
1.831299022E0,-2.729389817E-3,8.253291994E-2,9.734786034E0,9.735136273E0
1.833477147E0,-5.420472473E-3,7.316680253E-2,9.733559608E0,9.733836110E0
1.835581834E0,-5.602431949E-3,6.661626697E-2,9.740341187E0,9.740570596E0
1.837300584E0,-5.880159326E-3,7.017884403E-2,9.739382744E0,9.739637359E0
1.839299022E0,-8.379706182E-3,7.378929853E-2,9.738185883E0,9.738469046E0
1.841299022E0,-2.087743953E-3,7.148128748E-2,9.740714073E0,9.740976573E0
1.843299022E0,4.702212289E-3,7.293695956E-2,9.749926567E0,9.750200509E0
1.845299022E0,-5.937620299E-4,6.687483937E-2,9.756036758E0,9.756265978E0
1.847299022E0,-3.821145976E-3,6.769844890E-2,9.757099152E0,9.757334756E0
1.849299022E0,-2.355894540E-3,7.262092829E-2,9.754906654E0,9.755177250E0
1.851299022E0,-4.022258800E-3,6.879977882E-2,9.756840706E0,9.757084101E0
1.853299022E0,-8.475474082E-3,6.850289553E-2,9.755184174E0,9.755428373E0
1.855299022E0,-9.107543156E-3,7.154832780E-2,9.755586624E0,9.755853243E0
1.857299022E0,-1.027591340E-2,7.765832543E-2,9.757329941E0,9.757644387E0
1.859299022E0,-7.412448525E-3,7.856812328E-2,9.756190300E0,9.756509471E0
1.861299022E0,-1.053448766E-2,7.491935790E-2,9.753728867E0,9.754022283E0
1.863299022E0,-2.528276993E-3,8.117301017E-2,9.746326447E0,9.746664796E0
1.865299022E0,3.859453136E-3,8.395986259E-2,9.736701012E0,9.737063764E0
1.867299022E0,6.426037289E-3,8.552087843E-2,9.728197098E0,9.728575121E0
1.869299022E0,1.636676304E-2,9.533711523E-2,9.717824936E0,9.718306361E0
1.871299022E0,1.432690304E-2,9.326852113E-2,9.723312378E0,9.723770250E0
1.873299022E0,7.987056859E-3,8.061756194E-2,9.730428696E0,9.730765930E0
1.875299022E0,9.184157476E-3,8.221688867E-2,9.748059273E0,9.748410309E0
1.877369334E0,1.503558643E-2,8.345229179E-2,9.763803482E0,9.764171690E0
1.879299022E0,9.078812785E-3,7.957368344E-2,9.769568443E0,9.769896722E0
1.881299022E0,9.136273526E-3,8.161354810E-2,9.765957832E0,9.766303120E0
1.883299022E0,8.868123405E-3,8.487924188E-2,9.758124352E0,9.758497527E0
1.885299022E0,9.624690749E-3,8.848969638E-2,9.750060081E0,9.750466381E0
1.887299022E0,1.230619755E-2,9.084559232E-2,9.739928246E0,9.740359675E0
1.889299022E0,3.390189726E-3,9.116162360E-2,9.745989799E0,9.746416732E0
1.891299022E0,7.852981798E-4,9.240660816E-2,9.757932663E0,9.758370225E0
1.893299022E0,1.254561706E-3,8.878657222E-2,9.775908470E0,9.776311730E0
1.895299022E0,-6.081271917E-3,9.143935144E-2,9.780591965E0,9.781021282E0
1.897299022E0,-5.640739575E-3,8.958145231E-2,9.774855614E0,9.775267716E0
1.899299022E0,2.537853783E-3,9.077855200E-2,9.744535446E0,9.744958607E0
1.901299022E0,9.433154948E-3,8.794381469E-2,9.708947182E0,9.709350054E0
1.903299022E0,1.023760624E-2,8.965806663E-2,9.688568115E0,9.688988363E0
1.905299022E0,7.967903279E-3,9.040506184E-2,9.686211586E0,9.686636746E0
1.907299022E0,-2.767697209E-3,8.638279885E-2,9.704196930E0,9.704581789E0
1.909299022E0,-4.548983183E-3,8.901641518E-2,9.740158081E0,9.740565900E0
1.911299022E0,-5.698200315E-3,9.180326760E-2,9.772499084E0,9.772931938E0
1.913475584E0,-6.004657596E-3,8.994536847E-2,9.790053368E0,9.790468383E0
1.915299022E0,-1.019929908E-2,9.345047921E-2,9.791978836E0,9.792430063E0
1.917299022E0,-9.940725751E-3,8.682333678E-2,9.786586761E0,9.786976936E0
1.919299022E0,3.198653460E-3,8.870038390E-2,9.765892029E0,9.766295363E0
1.921299022E0,1.482489705E-2,9.229169041E-2,9.747780800E0,9.748228970E0
1.923299022E0,1.106121205E-2,9.018479288E-2,9.738204956E0,9.738628826E0
1.925299022E0,-6.703764666E-5,8.064629138E-2,9.740053177E0,9.740387041E0
1.927299022E0,2.968810149E-4,8.132623881E-2,9.748394966E0,9.748734198E0
1.929299022E0,-4.127603490E-3,8.056009561E-2,9.762606621E0,9.762939875E0
1.931299022E0,-5.439626053E-3,7.892246544E-2,9.760806084E0,9.761126664E0
1.933299022E0,-1.376187149E-2,7.908527553E-2,9.757675171E0,9.758005360E0
1.935300584E0,-1.156878285E-2,7.741890848E-2,9.744688034E0,9.745002432E0
1.937300584E0,-1.448013168E-2,7.972691208E-2,9.728743553E0,9.729081004E0
1.939299022E0,-1.168370433E-2,8.464939892E-2,9.725955963E0,9.726331345E0
1.941299022E0,-4.663905129E-3,9.093178064E-2,9.733340263E0,9.733766127E0
1.943299022E0,-5.736507475E-3,9.227253497E-2,9.746737480E0,9.747175931E0
1.945300584E0,-1.535162143E-2,9.840168804E-2,9.756410599E0,9.756918896E0
1.947299022E0,-1.645295322E-2,9.136273712E-2,9.761668205E0,9.762109608E0
1.949299022E0,-1.356075890E-2,8.509950340E-2,9.768276215E0,9.768656306E0
1.951299022E0,-1.101332717E-2,8.042602241E-2,9.768141747E0,9.768479043E0
1.953299022E0,-1.096544322E-2,7.738059759E-2,9.763085365E0,9.763398171E0
1.955299022E0,-9.002198349E-4,7.986099273E-2,9.763036728E0,9.763363393E0
1.957299022E0,-5.018246826E-3,8.593268692E-2,9.758890152E0,9.759269778E0
1.959299022E0,-1.434605662E-2,8.846096694E-2,9.753901482E0,9.754313162E0
1.961299022E0,-1.651999168E-2,8.497500420E-2,9.746402740E0,9.746787165E0
1.963299022E0,-1.946964860E-2,8.095274866E-2,9.744008064E0,9.744363785E0
1.965299022E0,-1.531331427E-2,8.124962449E-2,9.739717484E0,9.740068411E0
1.967299022E0,-1.378102507E-2,8.090486377E-2,9.740091324E0,9.740437080E0
1.969299022E0,-1.218169741E-2,8.277233690E-2,9.748442650E0,9.748801657E0
1.971299022E0,-1.867477410E-2,7.401914150E-2,9.763612747E0,9.763911176E0
1.973299022E0,-2.127966471E-2,6.667372584E-2,9.765374184E0,9.765624975E0
1.975299022E0,-1.438436378E-2,6.923073530E-2,9.758641243E0,9.758897413E0
1.977299022E0,-1.197100803E-2,6.969999522E-2,9.747178078E0,9.747434630E0
1.979299022E0,-9.433154948E-3,7.412447780E-2,9.739813805E0,9.740100429E0
1.981299022E0,-5.295974202E-3,7.944919169E-2,9.734661102E0,9.734986749E0
1.983299022E0,-8.686163463E-3,8.276276290E-2,9.736997604E0,9.737353207E0
1.985299022E0,-1.359906513E-3,9.208099544E-2,9.738751411E0,9.739186815E0
1.987299022E0,-6.378153339E-3,9.416873753E-2,9.754159927E0,9.754616565E0
1.989299022E0,-1.367568038E-2,9.230126441E-2,9.770287514E0,9.770733066E0
1.991299022E0,-1.829170063E-2,9.125739336E-2,9.766149521E0,9.766593007E0
1.993475584E0,-1.568681002E-2,8.681374788E-2,9.757722855E0,9.758121644E0
1.995300584E0,-1.674983650E-2,7.817547768E-2,9.750950813E0,9.751278569E0
1.997299022E0,-1.415451989E-2,8.644026518E-2,9.740991592E0,9.741385398E0
1.999299022E0,-1.136767026E-2,9.563399851E-2,9.729345322E0,9.729821965E0
2.001299022E0,-8.657433093E-3,9.014648199E-2,9.728368759E0,9.728790267E0
2.003299022E0,-8.360552602E-3,9.727162868E-2,9.730763435E0,9.731253193E0
2.005299022E0,-1.315853186E-2,1.057854071E-1,9.736537933E0,9.737121475E0
2.007299022E0,-1.915361360E-2,1.062450930E-1,9.748614311E0,9.749212064E0
2.009299022E0,-2.510081045E-2,1.019834131E-1,9.759512901E0,9.760078009E0
2.011299022E0,-1.233492792E-2,9.416873753E-2,9.760519028E0,9.760981077E0
2.013299022E0,-2.834734973E-3,9.572018683E-2,9.759360313E0,9.759830127E0
2.015299022E0,1.484405017E-3,9.288544953E-2,9.750701904E0,9.751144422E0
2.017299022E0,0.000000000E0,9.326852113E-2,9.747504234E0,9.747950442E0
2.019299022E0,-7.268796675E-3,9.484869242E-2,9.745435715E0,9.745899978E0
2.021444334E0,-9.059659205E-3,8.610507101E-2,9.751287460E0,9.751671820E0
2.023299022E0,-7.795520592E-3,8.293514699E-2,9.756133080E0,9.756488696E0
2.025299022E0,-5.372588523E-3,8.826943487E-2,9.754102707E0,9.754503574E0
2.027299022E0,-6.090848707E-3,8.544426411E-2,9.746728897E0,9.747105315E0
2.029299022E0,-1.153047569E-2,8.566453308E-2,9.738577843E0,9.738961431E0
2.031299022E0,-6.320692599E-3,8.350975811E-2,9.735685349E0,9.736045554E0
2.033299022E0,1.034295070E-3,8.820239455E-2,9.734115601E0,9.734515255E0
2.035299022E0,7.489062846E-3,8.958145231E-2,9.734220505E0,9.734635574E0
2.037299022E0,1.045787334E-2,8.136454970E-2,9.736824989E0,9.737170556E0
2.039299022E0,-1.091756043E-3,8.220730722E-2,9.743375778E0,9.743722635E0
2.041299022E0,-1.035252865E-2,8.495585620E-2,9.748414040E0,9.748789718E0
2.043299022E0,-1.527500711E-2,8.564538509E-2,9.754236221E0,9.754624171E0
2.045299022E0,-9.433154948E-3,8.449617028E-2,9.762473106E0,9.762843323E0
2.047299022E0,4.587290343E-3,7.966945320E-2,9.755970001E0,9.756296374E0
2.049300584E0,3.983951639E-3,7.847236097E-2,9.754120827E0,9.754437292E0
2.051299022E0,1.244984887E-4,8.110597730E-2,9.751276970E0,9.751614263E0
2.053299022E0,8.427590365E-4,8.668925613E-2,9.744592667E0,9.744978295E0
2.055299022E0,-4.022258800E-4,8.058883250E-2,9.739229202E0,9.739562628E0
2.057299022E0,7.757213898E-4,8.377791196E-2,9.734844208E0,9.735204728E0
2.059299022E0,3.983951639E-3,7.960242033E-2,9.734766960E0,9.735093229E0
2.061299022E0,-9.519346058E-3,7.379887253E-2,9.736135483E0,9.736419826E0
2.063299022E0,-8.255206980E-3,6.809109449E-2,9.738636017E0,9.738877554E0
2.065299022E0,-6.397306919E-3,7.318595797E-2,9.746527672E0,9.746804541E0
2.067299022E0,-7.153874729E-3,8.025363833E-2,9.756036758E0,9.756369461E0
2.069299022E0,-6.703765132E-3,8.101020753E-2,9.759111404E0,9.759449933E0
2.071300584E0,-5.679046735E-3,8.186253905E-2,9.757081032E0,9.757426094E0
2.073475584E0,-6.129156332E-3,8.190084994E-2,9.759341240E0,9.759686816E0
2.075299022E0,-9.308655746E-3,7.501512766E-2,9.759350777E0,9.759643513E0
2.077299022E0,-7.240065839E-3,6.743029505E-2,9.754858017E0,9.755093756E0
2.079299022E0,-1.499727927E-2,5.688623339E-2,9.752158165E0,9.752335609E0
2.081299022E0,-1.367568038E-2,6.396349519E-2,9.753709793E0,9.753929110E0
2.083299022E0,-1.065898594E-2,7.066725940E-2,9.754754066E0,9.755015857E0
2.085299022E0,2.777274000E-3,7.360734046E-2,9.749342918E0,9.749621177E0
2.087299022E0,7.105990313E-3,7.255388796E-2,9.748661995E0,9.748934570E0
2.089300584E0,5.918466486E-3,7.930553705E-2,9.744047165E0,9.744371686E0
2.091299022E0,-1.244984887E-4,8.772354573E-2,9.735206604E0,9.735601833E0
2.093299022E0,-1.762132393E-3,8.994536847E-2,9.726655006E0,9.727071033E0
2.095299022E0,-8.370129392E-3,8.498457819E-2,9.722814560E0,9.723189570E0
2.097299022E0,-1.672110520E-2,7.989929616E-2,9.722824097E0,9.723166763E0
2.099299022E0,-2.202665433E-2,7.822335511E-2,9.736346245E0,9.736685384E0
2.101299022E0,-2.075294033E-2,8.036856353E-2,9.752129555E0,9.752482794E0
2.103299022E0,-1.150174532E-2,8.044517785E-2,9.753240585E0,9.753579119E0
2.105299022E0,-8.130708709E-3,8.097190410E-2,9.753670692E0,9.754010177E0
2.107299022E0,-8.916007355E-3,8.093359321E-2,9.752090454E0,9.752430362E0
2.109299022E0,-9.050082415E-3,8.431421220E-2,9.750674248E0,9.751042974E0
2.111299022E0,-6.445190869E-3,8.304049075E-2,9.744458199E0,9.744814151E0
2.113299022E0,-2.949656453E-3,7.873092592E-2,9.737659454E0,9.737978174E0
2.115299022E0,-3.667917103E-3,8.192957938E-2,9.745109558E0,9.745454644E0
2.117299022E0,4.118026700E-4,8.408436924E-2,9.756639481E0,9.757001809E0
2.119299022E0,-3.734954633E-3,8.157524467E-2,9.757913589E0,9.758255279E0
2.121299022E0,-5.439626053E-3,8.260953426E-2,9.755491257E0,9.755842536E0
2.123299022E0,-5.774814636E-3,8.719681948E-2,9.759197235E0,9.759588480E0
2.125299022E0,-1.064940915E-2,8.490796387E-2,9.754427910E0,9.754803259E0
2.127299022E0,-8.130708709E-3,8.809704334E-2,9.751535416E0,9.751936739E0
2.129299022E0,-1.487278100E-2,9.480081499E-2,9.747896194E0,9.748368510E0
2.131299022E0,-1.906742342E-2,1.032954380E-1,9.748135567E0,9.748701480E0
2.133445897E0,-1.868435182E-2,9.682151675E-2,9.749984741E0,9.750483371E0
2.135583397E0,-1.138682384E-2,8.783847094E-2,9.753020287E0,9.753422475E0
2.137344334E0,-1.302445680E-2,7.520666718E-2,9.757434845E0,9.757733366E0
2.139299022E0,-6.033387966E-3,7.235277444E-2,9.759407997E0,9.759678057E0
2.141300584E0,-6.464344449E-3,7.407660037E-2,9.758392334E0,9.758675631E0
2.143299022E0,-4.118026700E-3,7.535032183E-2,9.761245728E0,9.761537419E0
2.145299022E0,1.848323736E-3,7.841489464E-2,9.761571884E0,9.761887008E0
2.147299022E0,5.468356423E-3,7.800309360E-2,9.756707191E0,9.757020529E0
2.149299022E0,1.292868983E-3,8.192000538E-2,9.758488655E0,9.758832583E0
2.151299022E0,8.331821882E-4,8.452489227E-2,9.761734962E0,9.762100933E0
2.153475584E0,-4.022258800E-3,8.601887524E-2,9.763678551E0,9.764058289E0
2.155299022E0,-2.106897591E-4,9.070193768E-2,9.761639595E0,9.762060974E0
2.157299022E0,8.494627662E-3,9.319190681E-2,9.758238792E0,9.758687474E0
2.159299022E0,7.671022322E-3,8.936118335E-2,9.746708870E0,9.747121527E0
2.161299022E0,4.836287349E-3,8.275318891E-2,9.743088722E0,9.743441349E0
2.163299022E0,-2.212242456E-3,8.853758126E-2,9.742131233E0,9.742533796E0
2.165299022E0,-7.929596119E-3,9.035716951E-2,9.742044449E0,9.742466697E0
2.167299022E0,-1.597411372E-2,8.742666990E-2,9.740877151E0,9.741282579E0
2.169299022E0,-2.602018416E-2,8.712020516E-2,9.750424385E0,9.750848305E0
2.171299022E0,-2.545515262E-2,7.753382623E-2,9.760145187E0,9.760486337E0
2.173299022E0,-2.824200317E-2,7.728482783E-2,9.761744499E0,9.762091283E0
2.175299022E0,-1.662533544E-2,8.429504931E-2,9.757521629E0,9.757899897E0
2.177299022E0,-7.910442539E-3,8.345229179E-2,9.751717567E0,9.752077849E0
2.179299022E0,-4.252102226E-3,8.598056436E-2,9.745003700E0,9.745383926E0
2.181299022E0,-3.658340313E-3,8.704359084E-2,9.739602089E0,9.739991726E0
2.183475584E0,-2.509123413E-3,8.154650778E-2,9.743941307E0,9.744282853E0
2.185300584E0,-3.600879340E-3,8.400775492E-2,9.743873596E0,9.744236395E0
2.187299022E0,-2.853888553E-3,9.109459072E-2,9.740484238E0,9.740910612E0
2.189299022E0,5.631162319E-3,9.002198279E-2,9.741451263E0,9.741868834E0
2.191299022E0,3.830722562E-5,8.093359321E-2,9.741939545E0,9.742275727E0
2.193299022E0,4.979939549E-4,7.326257229E-2,9.741508484E0,9.741783984E0
2.195300584E0,3.447650233E-4,7.214207947E-2,9.736615181E0,9.736882447E0
2.197299022E0,8.973468095E-3,8.783847094E-2,9.733053207E0,9.733453696E0
2.199299022E0,1.064940915E-2,9.511684626E-2,9.735896111E0,9.736366555E0
2.201300584E0,1.120486413E-3,9.194692224E-2,9.739899635E0,9.740333690E0
2.203300584E0,-6.914454512E-3,9.666828811E-2,9.739296913E0,9.739779101E0
2.205300584E0,-9.270348586E-3,9.576806426E-2,9.740388870E0,9.740864069E0
2.207299022E0,-1.345541421E-2,8.765651286E-2,9.742715836E0,9.743119447E0
2.209299022E0,-1.164539717E-2,8.351933211E-2,9.751257896E0,9.751622514E0
2.211299022E0,-3.074155189E-3,8.233180642E-2,9.751276970E0,9.751625019E0
2.213299022E0,4.692635266E-4,8.591353893E-2,9.749381065E0,9.749759613E0
2.215299022E0,2.422932070E-3,8.736921102E-2,9.749821663E0,9.750213419E0
2.217299022E0,2.413355280E-3,8.787677437E-2,9.746038437E0,9.746434905E0
2.219299022E0,3.399766516E-3,9.080728143E-2,9.742044449E0,9.742468248E0
2.221299022E0,1.273715287E-3,8.761820197E-2,9.745013237E0,9.745407203E0
2.223299022E0,-2.671929076E-3,8.829815686E-2,9.745981216E0,9.746381563E0
2.225299022E0,-7.872135378E-3,8.627744764E-2,9.750444412E0,9.750829298E0
2.227299022E0,-7.881712168E-3,7.912357897E-2,9.746891022E0,9.747215359E0
2.229299022E0,4.702212289E-3,7.776366919E-2,9.742552757E0,9.742864236E0
2.231299022E0,4.424484912E-3,8.264784515E-2,9.740321159E0,9.740672797E0
2.233475584E0,1.312022563E-3,8.595184237E-2,9.732784271E0,9.733163880E0
2.235299022E0,-1.216254430E-3,8.069417626E-2,9.730668068E0,9.731002727E0
2.237300584E0,-5.746084207E-5,8.062713593E-2,9.736433029E0,9.736766859E0
2.239299022E0,1.340752933E-3,8.495585620E-2,9.741297722E0,9.741668266E0
2.241299022E0,-8.427590365E-4,8.819281310E-2,9.741747856E0,9.742147093E0
2.243299022E0,-1.800439670E-3,8.347144723E-2,9.748346329E0,9.748703856E0
2.245299022E0,1.063025557E-3,8.833646029E-2,9.751650810E0,9.752050963E0
2.247299022E0,-4.692635266E-4,9.133400768E-2,9.747226715E0,9.747654628E0
2.249444334E0,6.895300467E-4,8.984002471E-2,9.742495537E0,9.742909780E0
2.251299022E0,-4.328716546E-3,8.320330083E-2,9.739641190E0,9.739997537E0
2.253299022E0,-6.339846179E-3,8.321287483E-2,9.736461639E0,9.736819287E0
2.255299022E0,-5.171475350E-4,8.113470674E-2,9.743721008E0,9.744058815E0
2.257299022E0,1.321599353E-3,8.819281310E-2,9.745224953E0,9.745624100E0
2.259299022E0,1.163582038E-2,9.075939655E-2,9.751172066E0,9.751601372E0
2.261299022E0,1.079306100E-2,9.403466433E-2,9.752684593E0,9.753143892E0
2.263299022E0,-1.695094863E-3,9.397720546E-2,9.752349854E0,9.752802790E0
2.265299022E0,-6.062118337E-3,8.867165446E-2,9.745981216E0,9.746386473E0
2.267299022E0,-6.100425497E-3,8.858546615E-2,9.734833717E0,9.735238677E0
2.269299022E0,-2.346317749E-3,7.938215137E-2,9.731367111E0,9.731691163E0
2.271299022E0,-1.277546026E-2,6.987238675E-2,9.733100891E0,9.733360073E0
2.273299022E0,-1.552400365E-2,7.972691208E-2,9.742629051E0,9.742967628E0
2.275299022E0,-7.795520592E-3,7.896076888E-2,9.746077538E0,9.746400512E0
2.277299022E0,1.532289025E-4,8.454405516E-2,9.752359390E0,9.752725844E0
2.279299022E0,-1.271799952E-2,8.675629646E-2,9.752052307E0,9.752446493E0
2.281299022E0,-2.484223805E-2,8.537723869E-2,9.748165131E0,9.748570655E0
2.283299022E0,-2.267787978E-2,8.095274866E-2,9.742245674E0,9.742608399E0
2.285299022E0,-1.493981853E-2,8.269572258E-2,9.741067886E0,9.741430354E0
2.287299022E0,-1.371398754E-2,7.647079974E-2,9.739276886E0,9.739586753E0
2.289299022E0,-1.306276396E-2,7.559931278E-2,9.748978615E0,9.749280482E0
2.291299022E0,-1.248815656E-2,7.586745918E-2,9.758622169E0,9.758925067E0
2.293299022E0,-9.481038898E-3,7.313807309E-2,9.756832123E0,9.757110850E0
2.295299022E0,-5.707777105E-3,7.998549193E-2,9.750050545E0,9.750380294E0
2.297299022E0,-8.925584145E-3,8.545385301E-2,9.750299454E0,9.750678000E0
2.299299022E0,-8.858546615E-3,8.684248477E-2,9.748193741E0,9.748584579E0
2.301299022E0,-8.580818772E-3,8.778101206E-2,9.751267433E0,9.751666303E0
2.303299022E0,-1.490151137E-2,9.269391745E-2,9.754063606E0,9.754515419E0
2.305299022E0,-2.574245632E-2,9.070193768E-2,9.755165100E0,9.755620721E0
2.307299022E0,-2.715024725E-2,8.576988429E-2,9.759091377E0,9.759506039E0
2.309299022E0,-2.197877131E-2,8.060798794E-2,9.758420944E0,9.758778614E0
2.311299022E0,-1.351287495E-2,8.259996027E-2,9.751296043E0,9.751655238E0
2.313475584E0,-8.647856303E-3,8.955271542E-2,9.754236221E0,9.754651133E0
2.315299022E0,-1.072602347E-2,9.549034387E-2,9.755893707E0,9.756366920E0
2.317299022E0,-1.337879989E-2,1.005947813E-1,9.748910904E0,9.749439067E0
2.319299022E0,-4.242525436E-3,1.050767228E-1,9.742945671E0,9.743513199E0
2.321299022E0,6.895300467E-4,1.006426588E-1,9.744487762E0,9.745007500E0
2.323299022E0,-2.863465343E-3,9.749189019E-2,9.745244026E0,9.745732091E0
2.325299022E0,-1.050575729E-2,9.860280901E-2,9.749514580E0,9.750018842E0
2.327299022E0,-1.944091730E-2,9.415916353E-2,9.752329826E0,9.752803748E0
2.329299022E0,-2.270660922E-2,8.727343380E-2,9.759215355E0,9.759631990E0
2.331299022E0,-2.111686021E-2,8.639237285E-2,9.759963036E0,9.760368232E0
2.333299022E0,-1.534204464E-2,8.745539933E-2,9.762760162E0,9.763163924E0
2.335299022E0,-6.244078279E-3,9.326852113E-2,9.752933502E0,9.753381460E0
2.337299022E0,-1.656787586E-3,9.291417897E-2,9.738855362E0,9.739298720E0
2.339300584E0,-7.623138372E-3,8.443870395E-2,9.731529236E0,9.731898544E0
2.341299022E0,-9.241618216E-3,7.956410944E-2,9.733914375E0,9.734243932E0
2.343299022E0,-9.797072969E-3,8.119216561E-2,9.740053177E0,9.740396503E0
2.345299022E0,-8.667009883E-3,9.514557570E-2,9.739392281E0,9.739860871E0
2.347299022E0,-9.586383589E-3,1.011598110E-1,9.744074821E0,9.744604627E0
2.349299022E0,-9.461885318E-3,9.134358168E-2,9.749984741E0,9.750417203E0
2.351299022E0,-1.102290396E-2,7.568550110E-2,9.753451347E0,9.753751226E0
2.353299022E0,-8.676586673E-3,7.615476847E-2,9.753757477E0,9.754058630E0
2.355299022E0,-9.576806799E-3,7.623138279E-2,9.755547523E0,9.755850061E0
2.357299022E0,-1.328303106E-2,8.727343380E-2,9.761007309E0,9.761406496E0
2.359299022E0,-2.310883440E-2,8.860461414E-2,9.769338608E0,9.769767737E0
2.361299022E0,-2.541684546E-2,8.341398835E-2,9.777450562E0,9.777839403E0
2.363299022E0,-2.153823897E-2,8.288726211E-2,9.766858101E0,9.767233557E0
2.365299022E0,-1.742978767E-2,8.105809242E-2,9.760777473E0,9.761129602E0
2.367299022E0,-1.472912915E-2,7.842446864E-2,9.754179001E0,9.754505386E0
2.369299022E0,-5.056553986E-3,8.342356235E-2,9.740904808E0,9.741263344E0
2.371299022E0,-2.308010357E-3,8.947610110E-2,9.733397484E0,9.733809012E0
2.373299022E0,-4.654327873E-3,8.885361254E-2,9.728838921E0,9.729245776E0
2.375299022E0,-2.298433566E-3,8.722555637E-2,9.737295151E0,9.737686092E0
2.377299022E0,4.979939549E-4,8.214984834E-2,9.744112968E0,9.744459266E0
2.379299022E0,4.501099174E-4,9.309613705E-2,9.742245674E0,9.742690484E0
2.381299022E0,9.624690749E-3,9.672574699E-2,9.742380142E0,9.742865048E0
2.383299022E0,1.168370433E-2,9.009859711E-2,9.747531891E0,9.747955285E0
2.385299022E0,1.188481692E-2,8.873869479E-2,9.747858047E0,9.748269196E0
2.387299022E0,7.335834205E-3,8.792465925E-2,9.755941391E0,9.756340348E0
2.389299022E0,1.252646372E-2,9.046251327E-2,9.772585869E0,9.773012583E0
2.391299022E0,4.836287349E-3,8.787677437E-2,9.782871246E0,9.783267120E0
2.393475584E0,5.439626053E-3,9.068278223E-2,9.781741142E0,9.782162988E0
2.395299022E0,5.937620066E-3,8.503247052E-2,9.767203331E0,9.767575272E0
2.397299022E0,8.896853775E-3,8.517611772E-2,9.756008148E0,9.756384018E0
2.399299022E0,4.884171300E-3,8.532934636E-2,9.743816376E0,9.744191219E0
2.401299022E0,7.326257415E-3,9.158299863E-2,9.721091270E0,9.721525426E0
2.403299022E0,7.498639636E-3,9.308656305E-2,9.706256866E0,9.706706120E0
2.405299022E0,8.839393035E-3,9.366117418E-2,9.698288918E0,9.698745201E0
2.407299022E0,5.717353895E-3,8.875784278E-2,9.701650620E0,9.702058307E0
2.409299022E0,5.918466486E-3,8.857589215E-2,9.713362694E0,9.713768349E0
2.411299022E0,3.227383830E-3,8.531977236E-2,9.726041794E0,9.726416547E0
2.413299022E0,-3.074155189E-3,8.009083569E-2,9.743309975E0,9.743639631E0
2.415299022E0,-3.208230250E-3,7.408617437E-2,9.758105278E0,9.758387042E0
2.417299022E0,-5.592855159E-3,6.305369735E-2,9.777814865E0,9.778019768E0
2.419299022E0,1.982399030E-3,5.691496283E-2,9.775017738E0,9.775183631E0
2.421299022E0,-1.446097856E-3,6.324522942E-2,9.772700310E0,9.772905064E0
2.423299022E0,-7.757213898E-4,7.016926259E-2,9.763439178E0,9.763691357E0
2.425299022E0,-3.447650233E-4,7.365521789E-2,9.754274368E0,9.754552458E0
2.427299022E0,-1.340752933E-3,7.399998605E-2,9.747570992E0,9.747851970E0
2.429299022E0,-6.847416982E-3,6.906793267E-2,9.744180679E0,9.744427863E0
2.431299022E0,-7.115567569E-3,7.042783499E-2,9.736969948E0,9.737227248E0
2.433299022E0,-4.156333860E-3,7.832870632E-2,9.737668037E0,9.737983953E0
2.435299022E0,-7.785943802E-3,8.557834476E-2,9.738147736E0,9.738526870E0
2.437299022E0,-7.096413523E-3,9.056786448E-2,9.734537125E0,9.734961013E0
2.439299022E0,-8.389282972E-3,8.495585620E-2,9.727727890E0,9.728102476E0
2.441299022E0,-5.985504016E-3,8.115386218E-2,9.737189293E0,9.737529312E0
2.443299022E0,-4.108449910E-3,7.605899870E-2,9.741183281E0,9.741481076E0
2.445299022E0,4.118026700E-4,8.113470674E-2,9.741958618E0,9.742296481E0
2.447299022E0,2.489969833E-3,8.661264181E-2,9.751056671E0,9.751441645E0
2.449299022E0,-4.223371856E-3,9.679278731E-2,9.756678581E0,9.757159608E0
2.451299022E0,-1.201889198E-2,9.080728143E-2,9.756085396E0,9.756515396E0
2.453299022E0,-2.216073126E-2,8.972510695E-2,9.757913589E0,9.758351260E0
2.455299022E0,-2.376005799E-2,8.540596068E-2,9.758756638E0,9.759159279E0
2.457299022E0,-1.805227995E-2,8.555918932E-2,9.756486893E0,9.756878740E0
2.459299022E0,-1.142513100E-2,8.482177556E-2,9.756802559E0,9.757177944E0
2.461300584E0,-4.558559973E-3,8.651687950E-2,9.752377510E0,9.752762329E0
2.463299022E0,-6.799533032E-3,8.617210388E-2,9.743873596E0,9.744257002E0
2.465299022E0,-9.117119946E-3,8.481220156E-2,9.740445137E0,9.740818636E0
2.467299022E0,-7.498639636E-3,8.445785940E-2,9.745176315E0,9.745545176E0
2.469299022E0,-5.094861146E-3,8.408436924E-2,9.748767853E0,9.749131797E0
2.471299022E0,-2.173935063E-3,8.267657459E-2,9.746641159E0,9.746992050E0
2.473475584E0,-4.769249819E-3,8.190084994E-2,9.737524033E0,9.737869622E0
2.475299022E0,-4.328716546E-3,8.256165683E-2,9.731165886E0,9.731517079E0
2.477444334E0,5.554548115E-4,8.399816602E-2,9.729777336E0,9.730139928E0
2.479299022E0,1.024718280E-3,9.022309631E-2,9.736883163E0,9.737301217E0
2.481299022E0,-5.276820622E-3,9.368032217E-2,9.741930008E0,9.742381851E0
2.483299022E0,-3.418920096E-3,8.853758126E-2,9.742256165E0,9.742659071E0
2.485299022E0,-4.960786086E-3,9.057743847E-2,9.740015030E0,9.740437447E0
2.487299022E0,-5.784391426E-3,8.646898717E-2,9.741250038E0,9.741635522E0
2.489299022E0,-5.238513462E-3,8.688078821E-2,9.748097420E0,9.748485986E0
2.491299022E0,-1.848323736E-3,8.546342701E-2,9.756361961E0,9.756736449E0
2.493299022E0,-6.675034296E-3,7.511088997E-2,9.765623093E0,9.765914222E0
2.495299022E0,-1.201889198E-2,7.408617437E-2,9.762443542E0,9.762732053E0
2.497300584E0,-1.508347038E-2,8.099105954E-2,9.758258820E0,9.758606573E0
2.499299022E0,-1.701798663E-2,8.402690291E-2,9.755835533E0,9.756212230E0
2.501299022E0,-2.427720465E-2,8.992621303E-2,9.748414040E0,9.748859030E0
2.503299022E0,-2.171062119E-2,9.175538272E-2,9.738731384E0,9.739187819E0
2.505299022E0,-2.381751873E-2,9.368990362E-2,9.740972519E0,9.741452186E0
2.507299022E0,-2.710236423E-2,9.328767657E-2,9.734756470E0,9.735241171E0
2.509299022E0,-1.921107434E-2,9.138189256E-2,9.735694885E0,9.736142697E0
2.511299022E0,-1.092713606E-2,9.034759551E-2,9.742437363E0,9.742862406E0
2.513299022E0,-1.829170156E-3,8.949526399E-2,9.739287376E0,9.739698730E0
2.515299022E0,-1.934514963E-3,8.626787364E-2,9.745291710E0,9.745673727E0
2.517299022E0,-1.216254430E-3,8.308837563E-2,9.750817299E0,9.751171373E0
2.519299022E0,-2.758120187E-3,8.402690291E-2,9.759034157E0,9.759396283E0
2.521299022E0,-1.723825117E-4,8.463024348E-2,9.762385368E0,9.762752193E0
2.523299022E0,1.637633890E-3,8.406520635E-2,9.764578819E0,9.764940817E0
2.525299022E0,1.953668660E-3,8.233180642E-2,9.767366409E0,9.767713597E0
2.527299022E0,1.359906513E-3,7.798393816E-2,9.769932747E0,9.770244072E0
2.529299022E0,-2.049436560E-3,7.856812328E-2,9.772144318E0,9.772460372E0
2.531299022E0,-3.179499879E-3,8.183381706E-2,9.765690804E0,9.766034188E0
2.533475584E0,-6.617573090E-3,8.120174706E-2,9.755434036E0,9.755774226E0
2.535299022E0,-4.395754542E-3,8.701486886E-2,9.741317749E0,9.741707366E0
2.537299022E0,-2.614468336E-3,8.849927783E-2,9.728350639E0,9.728753523E0
2.539299022E0,8.810661966E-4,9.253110737E-2,9.725085258E0,9.725525491E0
2.541299022E0,1.235408010E-3,9.352709353E-2,9.727334976E0,9.727784670E0
2.543300584E0,-3.399766516E-3,9.644801915E-2,9.731988907E0,9.732467409E0
2.545299022E0,-8.283937350E-3,9.479123354E-2,9.734900475E0,9.735365491E0
2.547299022E0,-6.167463958E-3,8.924625814E-2,9.745483398E0,9.745893987E0
2.549299022E0,-6.627150346E-3,8.849927783E-2,9.750482559E0,9.750886430E0
2.551299022E0,-1.509304717E-2,8.481220156E-2,9.757368088E0,9.757748352E0
2.553475584E0,-1.567723230E-2,8.146989346E-2,9.756496429E0,9.756849169E0
2.555299022E0,-1.358948927E-2,7.747636735E-2,9.757051468E0,9.757368529E0
2.557299022E0,-1.083136816E-2,6.978619099E-2,9.756074905E0,9.756330508E0
2.559299022E0,-1.065898594E-2,7.998549193E-2,9.747723579E0,9.748057564E0
2.561299022E0,-9.500192478E-3,8.418013155E-2,9.740847588E0,9.741215955E0
2.563299022E0,-1.721909828E-2,8.143159002E-2,9.748490334E0,9.748845644E0
2.565300584E0,-7.613561582E-3,7.637502998E-2,9.755184174E0,9.755486117E0
2.567299022E0,-1.280419063E-2,7.994718105E-2,9.750999451E0,9.751335590E0
2.569299022E0,-6.627150346E-3,7.926722616E-2,9.748825073E0,9.749149579E0
2.571299022E0,-9.988609701E-3,7.666233927E-2,9.744017601E0,9.744324291E0
2.573299022E0,-1.003649365E-2,7.589619607E-2,9.733329773E0,9.733630845E0
2.575299022E0,-4.855440930E-3,7.649953663E-2,9.733952522E0,9.734254335E0
2.577299022E0,-6.809109822E-3,8.747455478E-2,9.739823341E0,9.740218523E0
2.579299022E0,1.915361281E-5,8.668925613E-2,9.742820740E0,9.743206402E0
2.581299022E0,-2.499546623E-3,8.347144723E-2,9.738588333E0,9.738946373E0
2.583300584E0,-1.426944276E-3,9.117120504E-2,9.740867615E0,9.741294376E0
2.585299022E0,-1.608903520E-3,1.007480100E-1,9.741001129E0,9.741522250E0
2.587299022E0,-2.719813026E-3,9.504980594E-2,9.748576164E0,9.749039906E0
2.589299022E0,-7.948749699E-4,8.826943487E-2,9.746919632E0,9.747319346E0
2.591299022E0,-1.810016460E-3,9.305783361E-2,9.747599602E0,9.748043959E0
2.593299022E0,1.867477316E-3,9.927317500E-2,9.747043610E0,9.747549322E0
2.595299022E0,-9.193734732E-4,9.338344634E-2,9.748671532E0,9.749118829E0
2.597299022E0,-4.721365869E-3,9.196607023E-2,9.752608299E0,9.753043048E0
2.599299022E0,-1.369483303E-3,8.148904890E-2,9.755653381E0,9.755993811E0
2.601299022E0,-1.388637000E-3,7.444052398E-2,9.762002945E0,9.762286864E0
2.603299022E0,-1.532289025E-4,7.928638160E-2,9.767567635E0,9.767889427E0
2.605299022E0,-1.197100850E-3,8.373001963E-2,9.766513824E0,9.766872807E0
2.607300584E0,2.624045126E-3,8.126877993E-2,9.760988235E0,9.761326899E0
2.609299022E0,-3.380612936E-3,9.255983680E-2,9.755434036E0,9.755873717E0
2.611299022E0,-6.866570562E-3,9.870814532E-2,9.748978615E0,9.749480729E0
2.613299022E0,-1.001734007E-2,9.819100052E-2,9.746326447E0,9.746826203E0
2.615299022E0,-9.576806799E-3,9.491573274E-2,9.746613503E0,9.747080357E0
2.617299022E0,-3.160346241E-4,9.079770744E-2,9.742505074E0,9.742928175E0
2.619299022E0,2.106897533E-3,8.803958446E-2,9.737141609E0,9.737539839E0
2.621299022E0,5.286397412E-3,8.439082652E-2,9.731319427E0,9.731686779E0
2.623300584E0,-2.911349293E-3,7.908527553E-2,9.736366272E0,9.736687894E0
2.625299022E0,-7.498639636E-3,7.691133767E-2,9.738674164E0,9.738980750E0
2.627299022E0,-9.442731738E-3,7.383718342E-2,9.737026215E0,9.737310748E0
2.629299022E0,-9.366117418E-3,7.403828949E-2,9.744036674E0,9.744322455E0
2.631300584E0,-1.816720143E-2,7.706456631E-2,9.750817299E0,9.751138754E0
2.633477147E0,-1.278503705E-2,7.634630799E-2,9.755730629E0,9.756037737E0
2.635584959E0,-1.577300020E-2,6.811024994E-2,9.758814812E0,9.759065238E0
2.637577147E0,-1.846408285E-2,7.040868700E-2,9.757252693E0,9.757524195E0
2.639299022E0,-2.185427211E-2,8.007168025E-2,9.752483368E0,9.752836558E0
2.641394334E0,-1.897165552E-2,8.380663395E-2,9.747963905E0,9.748342617E0
2.643299022E0,-1.493024174E-2,8.050263673E-2,9.745377541E0,9.745721471E0
2.645299022E0,-1.268926915E-2,7.723694295E-2,9.741891861E0,9.742206300E0
2.647299022E0,-7.508216426E-3,7.630799711E-2,9.741202354E0,9.741504124E0
2.649299022E0,-6.224924698E-3,8.168058842E-2,9.746680260E0,9.747024497E0
2.651299022E0,1.953668660E-3,8.654560149E-2,9.743606567E0,9.743991117E0
2.653299022E0,5.736507475E-3,8.351933211E-2,9.740148544E0,9.740508306E0
2.655299022E0,-1.084094495E-2,8.343314379E-2,9.740388870E0,9.740752228E0
2.657299022E0,-1.414494310E-2,8.647856861E-2,9.738367081E0,9.738761319E0
2.659299022E0,-7.182605099E-3,7.629841566E-2,9.738923073E0,9.739224592E0
2.661299022E0,-8.188169450E-3,7.864473760E-2,9.751841545E0,9.752162097E0
2.663300584E0,-1.417367347E-2,7.797435671E-2,9.760528564E0,9.760850309E0
2.665299022E0,-1.063983236E-2,8.257123083E-2,9.760643959E0,9.760999012E0
2.667299022E0,-9.682151489E-3,8.742666990E-2,9.760940552E0,9.761336877E0
2.669300584E0,-1.018972229E-2,8.408436924E-2,9.766264915E0,9.766632194E0
2.671300584E0,-1.175074186E-2,9.154469520E-2,9.761878967E0,9.762315273E0
2.673300584E0,-1.131020952E-2,9.005071223E-2,9.756304741E0,9.756726872E0
2.675299022E0,-1.467166841E-2,9.099882096E-2,9.755136490E0,9.755571945E0
2.677299022E0,-1.265096199E-2,8.672755957E-2,9.751899719E0,9.752293569E0
2.679299022E0,-1.809058711E-2,9.010817856E-2,9.750779152E0,9.751212275E0
2.681299022E0,-1.588792168E-2,8.331821859E-2,9.753949165E0,9.754317950E0
2.683300584E0,-1.045787334E-2,7.515878230E-2,9.748509407E0,9.748804741E0
2.685299022E0,-1.024718303E-2,8.557834476E-2,9.746009827E0,9.746390932E0
2.687299022E0,-1.314895507E-2,8.558791876E-2,9.748605728E0,9.748990298E0
2.689299022E0,-9.021352045E-3,8.418970555E-2,9.743615150E0,9.743983040E0
2.691300584E0,-5.018246826E-3,8.511865884E-2,9.736643791E0,9.737017135E0
2.693299022E0,1.149216783E-3,8.788635582E-2,9.738799095E0,9.739195714E0
2.695299022E0,1.599326730E-3,8.508035541E-2,9.747129440E0,9.747500887E0
2.697299022E0,-8.705317043E-3,8.434294164E-2,9.753527641E0,9.753896194E0
2.699300584E0,-1.518881507E-2,8.348102868E-2,9.757368088E0,9.757737022E0
2.701299022E0,-1.426944230E-2,8.058883250E-2,9.762271881E0,9.762614940E0
2.703299022E0,-9.394847788E-3,7.901823521E-2,9.769799232E0,9.770123294E0
2.705299022E0,-1.107078884E-2,8.114428818E-2,9.766762733E0,9.767106084E0
2.707444334E0,-1.304361038E-2,8.048348129E-2,9.756840706E0,9.757181370E0
2.709299022E0,-4.472368862E-3,8.231265098E-2,9.753460884E0,9.753809235E0
2.711300584E0,-4.750096239E-3,7.923850417E-2,9.755250931E0,9.755573895E0
2.713475584E0,-7.766790222E-3,7.264008373E-2,9.752761841E0,9.753035447E0
2.715299022E0,-1.054406445E-2,7.144297659E-2,9.742744446E0,9.743012091E0
2.717364647E0,-1.296699606E-2,8.176677674E-2,9.736969948E0,9.737321896E0
2.719299022E0,-7.929596119E-3,8.359594643E-2,9.739679337E0,9.740041311E0
2.721299022E0,-4.577713553E-3,8.809704334E-2,9.741470337E0,9.741869757E0
2.723299022E0,-9.662997909E-3,8.812578022E-2,9.747934341E0,9.748337471E0
2.725299022E0,-1.085052174E-2,7.841489464E-2,9.746957779E0,9.747279240E0
2.727299022E0,-1.915361383E-3,8.464939892E-2,9.746296883E0,9.746664666E0
2.729299022E0,-2.068590140E-3,8.604760468E-2,9.750597000E0,9.750976891E0
2.731300584E0,-1.503558597E-3,9.693644196E-2,9.757731438E0,9.758213041E0
2.733299022E0,-4.357446916E-3,9.190861881E-2,9.756036758E0,9.756470643E0
2.735299022E0,-1.991975820E-3,8.708190173E-2,9.759465218E0,9.759853921E0
2.737299022E0,3.830722708E-4,7.983226329E-2,9.759043694E0,9.759370223E0
2.739299022E0,-2.796427580E-3,8.268614858E-2,9.756429672E0,9.756780451E0
2.741299022E0,-1.436521066E-3,8.213069290E-2,9.751325607E0,9.751671580E0
2.743299022E0,8.906430565E-3,8.198704571E-2,9.753441811E0,9.753790461E0
2.745299022E0,9.816226549E-3,8.462066948E-2,9.748767853E0,9.749140047E0
2.747299022E0,1.451843884E-2,8.855672926E-2,9.744898796E0,9.745311982E0
2.749299022E0,9.059659205E-3,8.562622964E-2,9.742093086E0,9.742473589E0
2.751299022E0,2.202665491E-4,8.686164021E-2,9.737629890E0,9.738017297E0
2.753299022E0,-6.818686612E-3,8.521442115E-2,9.732074738E0,9.732450189E0
2.755299022E0,-1.354160532E-2,8.361509442E-2,9.728081703E0,9.728450467E0
2.757299022E0,-4.434061702E-3,7.628884166E-2,9.734518051E0,9.734817992E0
2.759299022E0,-4.606443923E-3,6.404010952E-2,9.740341187E0,9.740552797E0
2.761300584E0,-3.102885559E-3,6.886681914E-2,9.741413116E0,9.741657034E0
2.763300584E0,-2.221819246E-3,7.517793030E-2,9.747054100E0,9.747344268E0
2.765299022E0,1.877054106E-3,7.838616520E-2,9.749198914E0,9.749514212E0
2.767299022E0,-1.561019570E-3,7.789774239E-2,9.747025490E0,9.747336887E0
2.769299022E0,-6.291962229E-3,8.230307698E-2,9.744171143E0,9.744520750E0
2.771299022E0,-5.171475932E-3,8.417055756E-2,9.746641159E0,9.747005966E0
2.773299022E0,-9.615113959E-3,8.998367190E-2,9.744937897E0,9.745358081E0
2.775299022E0,-2.059013350E-3,8.652645350E-2,9.744017601E0,9.744401987E0
2.777299022E0,5.363011733E-3,7.773493975E-2,9.742925644E0,9.743237223E0
2.779299022E0,7.326257415E-3,7.226658612E-2,9.738109589E0,9.738380486E0
2.781299022E0,2.997540403E-3,7.723694295E-2,9.735629082E0,9.735935915E0
2.783299022E0,-4.395754542E-3,8.076121658E-2,9.738100052E0,9.738435928E0
2.785299022E0,-6.406883709E-3,8.512823284E-2,9.747924805E0,9.748298614E0
2.787299022E0,-5.018246826E-3,8.618168533E-2,9.743635178E0,9.744017597E0
2.789299022E0,-8.475474082E-3,8.190084994E-2,9.741221428E0,9.741569406E0
2.791299022E0,-1.049618050E-2,8.735963702E-2,9.740915298E0,9.741312680E0
2.793475584E0,-1.325430069E-2,9.170750529E-2,9.733214378E0,9.733655432E0
2.795299022E0,-2.043690532E-2,8.844181150E-2,9.736662865E0,9.737085979E0
2.797299022E0,-1.566765644E-2,8.725428581E-2,9.741958618E0,9.742361957E0
2.799299022E0,-1.335964538E-2,8.494627476E-2,9.744707108E0,9.745086504E0
2.801299022E0,-7.613561582E-3,8.925583959E-2,9.745818138E0,9.746229822E0
2.803299022E0,-1.628057100E-3,9.228210896E-2,9.745023727E0,9.745460794E0
2.805299022E0,1.695094863E-3,9.294290841E-2,9.741863251E0,9.742306752E0
2.807299022E0,-4.692635266E-4,9.431239218E-2,9.739679337E0,9.740135965E0
2.809299022E0,-1.311064791E-2,9.230126441E-2,9.736662865E0,9.737109178E0
2.811299022E0,-1.996764168E-2,8.753201365E-2,9.738837242E0,9.739251069E0
2.813299022E0,-1.218169741E-2,9.097966552E-2,9.729614258E0,9.730047240E0
2.815299022E0,-2.422932070E-3,8.808746934E-2,9.729720116E0,9.730119157E0
2.817299022E0,1.953668660E-3,8.447701484E-2,9.737017632E0,9.737384276E0
2.819299022E0,1.043871976E-3,8.132623881E-2,9.736318588E0,9.736658292E0
2.821299022E0,-5.985504016E-3,7.157705724E-2,9.748308182E0,9.748572793E0
2.823299022E0,-1.388636976E-2,6.969042122E-2,9.754082680E0,9.754341521E0
2.825299022E0,-1.048660371E-2,8.535807580E-2,9.758163452E0,9.758542408E0
2.827299022E0,-5.631162319E-3,8.381621540E-2,9.769013405E0,9.769374584E0
2.829299022E0,-8.322244510E-3,7.987056673E-2,9.772833824E0,9.773163742E0
2.831299022E0,-1.765963249E-2,8.577945828E-2,9.770861626E0,9.771254110E0
2.833299022E0,-2.132754959E-2,8.958145231E-2,9.766905785E0,9.767339879E0
2.835299022E0,-1.411621273E-2,9.708967060E-2,9.760010719E0,9.760503825E0
2.837299022E0,-9.758765809E-3,9.554779530E-2,9.750357628E0,9.750830656E0
2.839299022E0,-1.153047569E-2,8.438124508E-2,9.742763519E0,9.743135745E0
2.841299022E0,-1.941218786E-2,7.660488039E-2,9.731864929E0,9.732185784E0
2.843299022E0,-1.983356662E-2,6.712383777E-2,9.716418266E0,9.716670361E0
2.845299022E0,-1.608903520E-2,7.183562219E-2,9.714990616E0,9.715269522E0
2.847299022E0,-2.019748464E-2,7.593449950E-2,9.718687057E0,9.719004687E0
2.849299022E0,-2.104982175E-2,7.948749512E-2,9.723935127E0,9.724282787E0
2.851299022E0,-2.249591798E-2,8.701486886E-2,9.737390518E0,9.737805284E0
2.853299022E0,-2.168188989E-2,7.824251056E-2,9.760087967E0,9.760425663E0
2.855299022E0,-1.960372366E-2,8.167100698E-2,9.775429726E0,9.775790545E0
2.857299022E0,-1.431732625E-2,8.626787364E-2,9.786184311E0,9.786575014E0
2.859299022E0,-2.550303563E-2,8.251377195E-2,9.783215523E0,9.783596726E0
2.861299022E0,-2.503377385E-2,7.620265335E-2,9.778609276E0,9.778938230E0
2.863299022E0,-2.199792489E-2,8.203493059E-2,9.772365570E0,9.772734647E0
2.865299022E0,-2.663310058E-2,8.517611772E-2,9.757492065E0,9.757900169E0
2.867299022E0,-2.723643929E-2,7.604942471E-2,9.746296883E0,9.746631637E0
2.869299022E0,-2.143289335E-2,7.311891764E-2,9.736212730E0,9.736510878E0
2.871299022E0,-2.076251805E-2,7.716991007E-2,9.732123375E0,9.732451472E0
2.873475584E0,-1.335964538E-2,8.667010814E-2,9.729528427E0,9.729923617E0
2.875299022E0,-1.214339025E-2,9.527007490E-2,9.720678329E0,9.721152763E0
2.877299022E0,-1.157835964E-2,9.259814769E-2,9.723810196E0,9.724257977E0
2.879299022E0,-1.260307804E-2,9.115204960E-2,9.724212646E0,9.724648021E0
2.881299022E0,-8.686163463E-3,8.307879418E-2,9.730237007E0,9.730595550E0
2.883477147E0,-3.466804046E-3,8.608591557E-2,9.740243912E0,9.740624942E0
2.885299022E0,-3.754108213E-3,8.543469012E-2,9.753268242E0,9.753643144E0
2.887299022E0,5.257667042E-3,8.411309123E-2,9.769923210E0,9.770286699E0
2.889299022E0,2.585737966E-3,8.486966044E-2,9.777326584E0,9.777695264E0
2.891299022E0,-2.528276993E-3,8.162312210E-2,9.781444550E0,9.781785430E0
2.893299022E0,-3.811569186E-3,8.480262756E-2,9.780074120E0,9.780442515E0
2.895299022E0,-6.301539019E-3,8.701486886E-2,9.774989128E0,9.775378445E0
2.897299022E0,-1.153047569E-2,9.526050091E-2,9.771800041E0,9.772271157E0
2.899299022E0,-1.697010174E-2,9.892841429E-2,9.772757530E0,9.773272971E0
2.901299022E0,-1.064940915E-2,9.889010340E-2,9.763937950E0,9.764444529E0
2.903300584E0,-6.387730129E-3,1.042148098E-1,9.750711441E0,9.751270437E0
2.905299022E0,-1.231577434E-2,1.115985289E-1,9.748221397E0,9.748867951E0
2.907299022E0,-8.820239455E-3,1.039849669E-1,9.740427017E0,9.740986046E0
2.909300584E0,-6.014234386E-3,9.689813107E-2,9.737400055E0,9.737884023E0
2.911299022E0,-2.097320743E-3,8.969637007E-2,9.735657692E0,9.736071104E0
2.913299022E0,1.800439670E-3,8.440040052E-2,9.733799934E0,9.734166006E0
2.915299022E0,8.446743712E-3,8.562622964E-2,9.732525826E0,9.732906151E0
2.917299022E0,1.331176143E-3,8.317457139E-2,9.737515450E0,9.737870759E0
2.919299022E0,-1.034295070E-3,8.462066948E-2,9.740541458E0,9.740909076E0
2.921299022E0,-9.777919389E-3,8.450574428E-2,9.746814728E0,9.747185961E0
2.923299022E0,-7.757213432E-3,9.271306545E-2,9.750749588E0,9.751193435E0
2.925300584E0,5.075707450E-4,9.126696736E-2,9.752933502E0,9.753360540E0
2.927299022E0,-4.960786086E-3,9.485826641E-2,9.750424385E0,9.750887057E0
2.929300584E0,-8.111555129E-3,8.771397173E-2,9.751420975E0,9.751818834E0
2.931299022E0,-1.628057100E-3,8.447701484E-2,9.752492905E0,9.752858908E0
2.933444334E0,-1.091755927E-2,7.622180134E-2,9.755414009E0,9.755717885E0
2.935300584E0,-1.253604051E-2,8.318414539E-2,9.757320404E0,9.757683036E0
2.937299022E0,-5.726930685E-3,8.609548956E-2,9.752943039E0,9.753324723E0
2.939299022E0,8.360552602E-3,9.116162360E-2,9.745856285E0,9.746286219E0
2.941299022E0,6.033387966E-3,8.975382894E-2,9.731999397E0,9.732415138E0
2.943299022E0,5.458779633E-3,8.948568255E-2,9.717279434E0,9.717692992E0
2.945299022E0,-3.926490899E-4,9.617029876E-2,9.708191872E0,9.708668204E0
2.947299022E0,-2.691082656E-3,9.427408874E-2,9.714654922E0,9.715112717E0
2.949299022E0,3.495534416E-3,8.004295081E-2,9.725103378E0,9.725433400E0
2.951299022E0,8.331821300E-3,8.343314379E-2,9.729546547E0,9.729907837E0
2.953475584E0,7.278373465E-3,8.890149742E-2,9.727364540E0,9.727773504E0
2.955299022E0,3.639186616E-4,8.551130444E-2,9.734756470E0,9.735132040E0
2.957299022E0,6.177040748E-3,8.602845669E-2,9.740034103E0,9.740415976E0
2.959299022E0,2.509123413E-3,8.535807580E-2,9.746613503E0,9.746987589E0
2.961299022E0,-1.723825233E-3,8.414182067E-2,9.752943039E0,9.753306144E0
2.963299022E0,-9.682151489E-3,8.327991515E-2,9.761446953E0,9.761807000E0
2.965300584E0,-1.242111903E-2,7.891288400E-2,9.763640404E0,9.763967199E0
2.967299022E0,-1.609861106E-2,7.458417863E-2,9.756046295E0,9.756344668E0
2.969299022E0,-1.139640063E-2,7.752425224E-2,9.754236221E0,9.754550946E0
2.971299022E0,-2.873042104E-5,8.494627476E-2,9.752933502E0,9.753303429E0
2.973299022E0,-1.723825117E-4,8.850885183E-2,9.747685432E0,9.748087255E0
2.975299022E0,-3.849876346E-3,9.186073393E-2,9.742466927E0,9.742900750E0
2.977299022E0,2.968810033E-3,9.125739336E-2,9.739498138E0,9.739926114E0
2.979299022E0,6.062118337E-3,8.991663903E-2,9.737112999E0,9.737530041E0
2.981299022E0,1.525585353E-2,9.047209471E-2,9.738061905E0,9.738494114E0
2.983299022E0,1.049618050E-2,8.883445710E-2,9.741470337E0,9.741881033E0
2.985299022E0,2.375048120E-3,9.189903736E-2,9.745732307E0,9.746165876E0
2.987299022E0,-1.656787586E-3,9.253110737E-2,9.745435715E0,9.745875129E0
2.989299022E0,-9.806649759E-3,9.346963465E-2,9.747551918E0,9.748004982E0
2.991299022E0,-1.774582267E-2,9.027098119E-2,9.749763489E0,9.750197529E0
2.993299022E0,-1.232535113E-2,8.928456903E-2,9.750452995E0,9.750869564E0
2.995299022E0,-4.999093246E-3,8.764693141E-2,9.757300377E0,9.757695303E0
2.997299022E0,-6.646303926E-3,9.164046496E-2,9.757310867E0,9.757743464E0
2.999299022E0,-6.100425497E-3,9.138189256E-2,9.752703667E0,9.753133685E0
3.001299022E0,-5.784391426E-3,9.203311056E-2,9.745645523E0,9.746081788E0
3.003299022E0,-1.068771631E-2,9.759723395E-2,9.745119095E0,9.745613661E0
3.005299022E0,-1.618480310E-2,1.014375389E-1,9.744650841E0,9.745192226E0
3.007299022E0,-2.151908539E-2,1.069729328E-1,9.749428749E0,9.750039344E0
3.009299022E0,-2.172019705E-2,1.006139293E-1,9.739564896E0,9.740108792E0
3.011299022E0,-2.281195484E-2,9.453266114E-2,9.745607376E0,9.746092547E0
3.013299022E0,-1.753513329E-2,8.937075734E-2,9.745914459E0,9.746339993E0
3.015299022E0,-1.360864285E-2,8.237969130E-2,9.752819061E0,9.753176470E0
3.017299022E0,-1.127190143E-2,8.713936806E-2,9.758526802E0,9.758922362E0
3.019299022E0,-1.612734236E-2,8.813535422E-2,9.760757446E0,9.761168673E0
3.021300584E0,-1.881842688E-2,8.910261095E-2,9.753776550E0,9.754201679E0
3.023299022E0,-2.533065341E-2,8.605717868E-2,9.750616074E0,9.751028730E0
3.025299022E0,-2.606806718E-2,9.377609193E-2,9.751727104E0,9.752212827E0
3.027299022E0,-2.576160990E-2,9.458054602E-2,9.754782677E0,9.755275199E0
3.029299022E0,-1.694137231E-2,9.000282735E-2,9.746583939E0,9.747014209E0
3.031299022E0,-1.724782959E-2,8.547300100E-2,9.743969917E0,9.744360054E0
3.033475584E0,-4.979939666E-3,8.412267268E-2,9.749476433E0,9.749840621E0
3.035299022E0,9.576806915E-4,9.282799065E-2,9.751650810E0,9.752092672E0
3.037299022E0,1.522712177E-3,8.642110229E-2,9.752560616E0,9.752943632E0
3.039299022E0,-9.337387048E-3,8.584649861E-2,9.755250931E0,9.755633118E0
3.041299022E0,-1.350329816E-2,8.173804730E-2,9.752100945E0,9.752452834E0
3.043299022E0,-1.703714021E-2,7.410532981E-2,9.756420135E0,9.756716442E0
3.045299022E0,-2.230438218E-2,7.390422374E-2,9.758631706E0,9.758937037E0
3.047299022E0,-2.207453921E-2,8.029194921E-2,9.756361961E0,9.756717317E0
3.049299022E0,-2.109770663E-2,7.612603903E-2,9.759034157E0,9.759353870E0
3.051299022E0,-1.888546348E-2,7.383718342E-2,9.761600494E0,9.761898012E0
3.053299022E0,-1.535162143E-2,6.932650506E-2,9.753939629E0,9.754198076E0
3.055299022E0,-7.335834205E-3,6.871359050E-2,9.746498108E0,9.746743084E0
3.057299022E0,-5.133168306E-3,8.123047650E-2,9.740942955E0,9.741282995E0
3.059299022E0,-6.090848707E-3,8.087613434E-2,9.742638588E0,9.742976173E0
3.061299022E0,-5.784391426E-3,8.024406433E-2,9.741020203E0,9.741352430E0
3.063299022E0,-6.196194328E-3,7.612603903E-2,9.744248390E0,9.744547719E0
3.065299022E0,-7.709329482E-3,8.024406433E-2,9.745876312E0,9.746209706E0
3.067299022E0,-9.777919389E-3,7.957368344E-2,9.756257057E0,9.756586460E0
3.069299022E0,-1.331176143E-2,7.662402838E-2,9.755979538E0,9.756289520E0
3.071299022E0,-1.103248075E-2,7.771579176E-2,9.753604889E0,9.753920739E0
3.073299022E0,-7.584830746E-3,8.170931041E-2,9.754369736E0,9.754714905E0
3.075299022E0,-9.270348586E-3,7.998549193E-2,9.751287460E0,9.751619904E0
3.077299022E0,-1.759259403E-2,8.192957938E-2,9.748825073E0,9.749185210E0
3.079299022E0,-2.162442915E-2,7.729440928E-2,9.740397453E0,9.740728134E0
3.081299022E0,-1.428859588E-2,8.620083332E-2,9.734278679E0,9.734670829E0
3.083299022E0,-6.224924698E-3,8.531019837E-2,9.726635933E0,9.727012036E0
3.085299022E0,-3.284844570E-3,9.063490480E-2,9.722230911E0,9.722653926E0
3.087299022E0,-4.692635499E-3,8.849927783E-2,9.725515366E0,9.725919148E0
3.089299022E0,-8.456320502E-3,8.846096694E-2,9.732947350E0,9.733353017E0
3.091299022E0,-3.878606716E-3,8.428547531E-2,9.733387947E0,9.733753645E0
3.093299022E0,-8.485050872E-3,7.648037374E-2,9.729413033E0,9.729717324E0
3.095299022E0,-7.757213432E-3,7.419151813E-2,9.732746124E0,9.733031988E0
3.097299022E0,-3.380612936E-3,7.607815415E-2,9.736366272E0,9.736664085E0
3.099299022E0,-4.347870126E-3,7.322426885E-2,9.742696762E0,9.742972898E0
3.101299022E0,-7.709329482E-3,7.498639822E-2,9.746498108E0,9.746789613E0
3.103299022E0,-1.163582038E-2,7.887458056E-2,9.754369736E0,9.754695563E0
3.105299022E0,-9.701305069E-3,8.007168025E-2,9.755586624E0,9.755920047E0
3.107299022E0,-7.852981798E-3,8.191043139E-2,9.758086205E0,9.758433141E0
3.109299022E0,-7.086836733E-3,8.494627476E-2,9.760040283E0,9.760412513E0
3.111299022E0,-7.565677166E-3,8.962933719E-2,9.758086205E0,9.758500757E0
3.113475584E0,-6.856993772E-3,9.542330354E-2,9.747025490E0,9.747494987E0
3.115299022E0,-2.700659446E-3,9.449435771E-2,9.738492012E0,9.738950824E0
3.117299022E0,-2.758120187E-3,9.270349145E-2,9.733903885E0,9.734345709E0
3.119299022E0,2.671929076E-3,8.926542103E-2,9.737035751E0,9.737445285E0
3.121299022E0,4.750096239E-3,8.782889694E-2,9.734459877E0,9.734857245E0
3.123299022E0,-6.607996766E-4,8.607634157E-2,9.727066994E0,9.727447860E0
3.125299022E0,-8.944737725E-3,8.245630562E-2,9.719262123E0,9.719616004E0
3.127299022E0,-2.173935063E-3,8.765651286E-2,9.717241287E0,9.717636885E0
3.129299022E0,1.637633890E-3,8.798212558E-2,9.723667145E0,9.724065316E0
3.131299022E0,1.723825233E-3,7.957368344E-2,9.724825859E0,9.725151563E0
3.133445897E0,3.916914109E-3,8.281064779E-2,9.731156349E0,9.731509484E0
3.135730272E0,2.710236236E-3,8.558791876E-2,9.738636017E0,9.739012481E0
3.137203709E0,-2.403778490E-3,8.191043139E-2,9.745760918E0,9.746105425E0
3.139299022E0,-3.256114200E-3,8.139327914E-2,9.751219749E0,9.751559981E0
3.141299022E0,4.692635266E-4,8.078993857E-2,9.760460854E0,9.760795219E0
3.143299022E0,-3.112462349E-3,8.712020516E-2,9.765843391E0,9.766232475E0
3.145299022E0,-9.461885318E-3,9.318232536E-2,9.770622253E0,9.771071164E0
3.147299022E0,-4.242525436E-3,8.773312718E-2,9.761303902E0,9.761699082E0
3.149299022E0,1.628057216E-4,8.951441199E-2,9.753393173E0,9.753803937E0
3.151299022E0,-3.667917103E-3,8.633491397E-2,9.745119095E0,9.745502211E0
3.153299022E0,-6.617573090E-3,7.784028351E-2,9.734824181E0,9.735137633E0
3.155299022E0,1.848323736E-3,7.608772814E-2,9.723131180E0,9.723429061E0
3.157299022E0,2.499546623E-3,7.473740727E-2,9.724836349E0,9.725123853E0
3.159299022E0,-1.771709183E-3,7.533115894E-2,9.731682777E0,9.731974497E0
3.161444334E0,-7.680599112E-3,7.015010715E-2,9.735226631E0,9.735482401E0
3.163299022E0,-6.981492043E-3,7.820419967E-2,9.730284691E0,9.730601462E0
3.165299022E0,7.182605332E-4,7.164409012E-2,9.730744362E0,9.731008130E0
3.167300584E0,-3.256114433E-4,7.160577923E-2,9.742274284E0,9.742537438E0
3.169300584E0,4.050989170E-3,7.015010715E-2,9.746326447E0,9.746579741E0
3.171299022E0,8.293514140E-3,7.897992432E-2,9.752578735E0,9.752902060E0
3.173299022E0,1.016099192E-2,8.228392154E-2,9.755624771E0,9.755977069E0
3.175299022E0,4.338293336E-3,8.709148318E-2,9.758565903E0,9.758955488E0
3.177299022E0,2.537853783E-3,8.915049583E-2,9.754369736E0,9.754777455E0
3.179299022E0,-6.607996300E-3,8.659349382E-2,9.757482529E0,9.757868999E0
3.181299022E0,-1.769793965E-2,8.948568255E-2,9.751727104E0,9.752153732E0
3.183299022E0,-2.034113742E-2,8.717767149E-2,9.742437363E0,9.742848632E0
3.185300584E0,-1.978568360E-2,8.448658884E-2,9.739574432E0,9.739960964E0
3.187299022E0,-1.084094495E-2,8.443870395E-2,9.737553596E0,9.737925727E0
3.189299022E0,-1.364695001E-2,8.475473523E-2,9.737236977E0,9.737615393E0
3.191299022E0,-1.507389359E-2,8.336610347E-2,9.740243912E0,9.740612331E0
3.193475584E0,-1.505474001E-2,8.671798557E-2,9.741010666E0,9.741408289E0
3.195299022E0,-1.154962927E-2,8.571241796E-2,9.745981216E0,9.746364957E0
3.197299022E0,-3.150769509E-3,8.865250647E-2,9.743787766E0,9.744191563E0
3.199299022E0,-2.585737675E-4,9.573933482E-2,9.744074821E0,9.744545152E0
3.201299022E0,-6.799532566E-4,1.036402062E-1,9.751075745E0,9.751626528E0
3.203299022E0,1.082179137E-3,1.035348624E-1,9.763075829E0,9.763624853E0
3.205300584E0,2.796427580E-3,1.053448692E-1,9.762644768E0,9.763213519E0
3.207299022E0,1.819593366E-3,1.053640321E-1,9.761590958E0,9.762159746E0
3.209299022E0,6.291962229E-3,1.035731658E-1,9.763554573E0,9.764105944E0
3.211299022E0,5.228936672E-3,1.056130230E-1,9.764368057E0,9.764940605E0
3.213299022E0,1.379060093E-3,1.031613648E-1,9.763660431E0,9.764205507E0
3.215299022E0,-6.847416982E-3,9.588298947E-2,9.756017685E0,9.756491250E0
3.217299022E0,-9.184157476E-3,9.888052940E-2,9.754762650E0,9.755268118E0
3.219300584E0,-8.523358032E-3,1.000393182E-1,9.751966476E0,9.752483308E0
3.221299022E0,-8.379706182E-3,9.238746017E-2,9.749821663E0,9.750262977E0
3.223299022E0,-1.015141513E-2,8.990705758E-2,9.753326416E0,9.753746076E0
3.225299022E0,-1.833000779E-2,9.127654135E-2,9.759063721E0,9.759507780E0
3.227299022E0,-2.211284637E-2,8.734047413E-2,9.753374100E0,9.753790221E0
3.229299022E0,-2.784935385E-2,8.176677674E-2,9.750243187E0,9.750625805E0
3.231299022E0,-2.782062255E-2,8.203493059E-2,9.753632545E0,9.754017201E0
3.233475584E0,-2.505292743E-2,7.467994094E-2,9.750070572E0,9.750388756E0
3.235299022E0,-1.810016483E-2,7.379887253E-2,9.750147820E0,9.750443907E0
3.237299022E0,-1.290953532E-2,8.157524467E-2,9.752608299E0,9.752958003E0
3.239299022E0,-1.476743631E-2,8.803958446E-2,9.752876282E0,9.753284822E0
3.241299022E0,-2.190215699E-2,9.259814769E-2,9.755011559E0,9.755475623E0
3.243299022E0,-2.497631311E-2,9.485826641E-2,9.753949165E0,9.754442384E0
3.245299022E0,-3.043509275E-2,9.874644876E-2,9.754543304E0,9.755090581E0
3.247299022E0,-3.106716089E-2,9.027098119E-2,9.749035835E0,9.749503256E0
3.249299022E0,-1.898123138E-2,8.648814261E-2,9.745119095E0,9.745521364E0
3.251299022E0,-1.326387748E-2,8.244673163E-2,9.745521545E0,9.745879313E0
3.253299022E0,-1.059194840E-2,8.541554213E-2,9.744296074E0,9.744676187E0
3.255299022E0,3.351882333E-4,8.701486886E-2,9.742629051E0,9.743017630E0
3.257299022E0,-2.221819246E-3,9.182242304E-2,9.742283821E0,9.742716785E0
3.259299022E0,-1.343626063E-2,9.567230195E-2,9.741681099E0,9.742160148E0
3.261299022E0,-1.401086804E-2,9.351751953E-2,9.743836403E0,9.744295238E0
3.263299022E0,-1.545696612E-2,8.806831390E-2,9.750050545E0,9.750460531E0
3.265299022E0,-9.433154948E-3,8.735005558E-2,9.748049736E0,9.748445654E0
3.267299022E0,-7.153874729E-3,8.888234943E-2,9.744199753E0,9.744607743E0
3.269299022E0,-5.573701579E-3,9.171707928E-2,9.741508484E0,9.741941831E0
3.271299022E0,-3.696647473E-3,9.172665328E-2,9.727344513E0,9.727777686E0
3.273475584E0,1.723825233E-3,8.647856861E-2,9.719367027E0,9.719751896E0
3.275299022E0,1.387679297E-2,8.999325335E-2,9.721714020E0,9.722140445E0
